<?xml version="1.0" encoding="UTF-8"?>
<Bundle xmlns="http://hl7.org/fhir">
	<id value="lri-example"/>
	<meta>
		<versionId value="1"/>
		<lastUpdated value="2017-06-27T00:52:51Z"/>
	</meta>
	<type value="collection"/>
	<entry>
		<fullUrl value="[%test-server%]/DiagnosticReport/lri-example"/>
		<resource>
			<DiagnosticReport>
				<id value="lri-example"/>
				<identifier>
					<type>
						<coding>
							<system value="http://terminology.hl7.org/CodeSystem/v2-0203"/>
							<code value="PLAC"/>
							<display value="Placer Identifier"/>
						</coding>
					</type>
					<system value="https://acme.org/identifiers"/>
					<value value="RP723234"/>
				</identifier>
				<identifier>
					<type>
						<coding>
							<system value="http://terminology.hl7.org/CodeSystem/v2-0203"/>
							<code value="FILL"/>
							<display value="Filler Identifier"/>
						</coding>
					</type>
					<system value="https://acme.org/identifiers"/>
					<value value="250401"/>
				</identifier>
				<identifier>
					<type>
						<coding>
							<system value="https://acme.org/identifiers"/>
							<code value="GRP"/>
							<display value="Group"/>
						</coding>
					</type>
					<system value="https://acme.org/identifiers"/>
					<value value="RFP 123456"/>
				</identifier>
				<basedOn>
					<reference value="ServiceRequest/example"/>
				</basedOn>
				<status value="final"/>
				<category>
					<coding>
						<system value="http://terminology.hl7.org/CodeSystem/v2-0074"/>
						<code value="LAB"/>
						<display value="Laboratory"/>
					</coding>
					<coding>
						<system value="http://terminology.hl7.org/CodeSystem/v2-0074"/>
						<code value="MB"/>
						<display value="microbiology"/>
					</coding>
				</category>
				<code>
					<coding>
						<system value="http://loinc.org"/>
						<code value="624-7"/>
						<display value="Bacteria Spt Resp Cult"/>
					</coding>
					<text value="Aerobic Respiratory Culture, Sputum"/>
				</code>
				<subject>
					<reference value="Patient/example"/>
				</subject>
				<effectiveDateTime value="2016-08-15"/>
				<issued value="2016-08-18T18:14:35Z"/>
				<performer>
					<reference value="Organization/example"/>
				</performer>
				<specimen>
					<reference value="Specimen/101"/>
				</specimen>
				<result>
					<reference value="Group/lri-group"/>
				</result>
			</DiagnosticReport>
		</resource>
	</entry>

				<code>
					<coding>
						<system value="http://loinc.org"/>
						<code value="624-7"/>
						<display value="Bacteria Spt Resp Cult"/>
					</coding>
					<text value="Aerobic Respiratory Culture, Sputum"/>
				</code>


	<entry>
		<fullUrl value="http://test.fhir.org/r5/Group/lri-group"/>
		<resource>
			<!-- Aerobic Respiratory Culture, Sputum (Group) with panel member Observation resources -->
			<Group xmlns="http://hl7.org/fhir" xmlns:xhtml="http://www.w3.org/1999/xhtml" xmlns:xsi="http://www.w3.org/2001/XMLSchema-instance" xsi:schemaLocation="http://hl7.org/fhir ../../schema/device.xsd">
			<id value="lri-group"/>
			<status value="active"/>
			<type value="observation"/>
			<membership value="enumerated"/>
			<code>
				<text value="Aerobic Respiratory Culture, Sputum"/>
			</code>
				<member>
				<entity>
					<reference value="Observation/lri-organism1"/>
					<display value="Normal Flora"/>
				</entity>
			</member>
				<member>
				<entity>
					<reference value="Observation/lri-organism2"/>
					<display value="Klebsiella pneumoniaee"/>
				</entity>
			</member>
				<member>
				<entity>
					<reference value="Observation/lri-organism3"/>
					<display value="Staphylococcus aureus"/>
				</entity>
			</member>
				<member>
				<entity>
					<reference value="Observation/lri-gramstain1"/>
					<display value="Many WBCs"/>
				</entity>
			</member>
				<member>
				<entity>
					<reference value="Observation/lri-gramstain2"/>
					<display value="Moderate Gram Positive Rods"/>
				</entity>
			</member>
				<member>
				<entity>
					<reference value="Observation/lri-gramstain3"/>
					<display value="Moderate Gram Positive Cocci in Chains"/>
				</entity>
			</member>
				<member>
				<entity>
					<reference value="Observation/lri-gramstain4"/>
					<display value="Many Gram Negative Rods"/>
				</entity>
			</member>
			</Group>
		</resource>
	</entry>

	<entry>
		<fullUrl value="http://test.fhir.org/r5/Observation/lri-gramstain1"/>
		<resource>
			<Observation>
				<id value="lri-gramstain1"/>
				<identifier>
					<system value="https://acme.org/identifiers"/>
					<value value="gramstain1"/>
				</identifier>
				<status value="final"/>
				<category>
					<coding>
						<system value="http://terminology.hl7.org/CodeSystem/observation-category"/>
						<code value="laboratory"/>
						<display value="Laboratory"/>
					</coding>
					<coding>
						<system value="http://terminology.hl7.org/CodeSystem/v2-0074"/>
						<code value="MB"/>
						<display value="microbiology"/>
					</coding>
					<text value="Micro"/>
				</category>
				<category>
					<coding>
						<system value="urn:oid:2.16.840.1.113883.9.195.4.61"/>
						<code value="RSLT"/>
						<display value="Result"/>
					</coding>
				</category>
				<code>
					<coding>
						<system value="http://loinc.org"/>
						<code value="664-3"/>
						<display value="Gram Stn Spec"/>
					</coding>
					<coding>
						<system value="https://acme.org/codes"/>
						<code value="GMST"/>
						<display value="Gram Stain"/>
					</coding>
					<text value="Gram Stain"/>
				</code>
				<subject>
					<reference value="Patient/example"/>
				</subject>
				<effectiveDateTime value="2016-08-18"/>
				<issued value="2016-08-18T23:06:32Z"/>
				<performer>
					<reference value="Organization/example"/>
				</performer>
				<component>
					<code>
						<coding>
							<system value="http://loinc.org"/>
							<code value="664-3"/>
							<display value="Gram Stn Spec"/>
						</coding>
						<text value="Gram Stain"/>
					</code>
					<valueCodeableConcept>
						<coding>
							<system value="https://acme.org/codes"/>
							<code value="MNY"/>
							<display value="Many"/>
						</coding>
						<text value="Many"/>
					</valueCodeableConcept>
				</component>
				<component>
					<code>
						<coding>
							<system value="http://loinc.org"/>
							<code value="664-3"/>
							<display value="Gram Stn Spec"/>
						</coding>
						<text value="Gram Stain"/>
					</code>
					<valueCodeableConcept>
						<coding>
							<system value="https://acme.org/codes"/>
							<code value="WBCS"/>
							<display value="WBCS"/>
						</coding>
						<text value="WBCS"/>
					</valueCodeableConcept>
				</component>
			</Observation>
		</resource>
	</entry>
	<entry>
		<fullUrl value="[%test-server%]/Observation/lri-gramstain2"/>
		<resource>
			<Observation>
				<id value="lri-gramstain2"/>
				<identifier>
					<system value="https://acme.org/identifiers"/>
					<value value="gramstain2"/>
				</identifier>
				<status value="final"/>
				<category>
					<coding>
						<system value="http://terminology.hl7.org/CodeSystem/observation-category"/>
						<code value="laboratory"/>
						<display value="Laboratory"/>
					</coding>
					<coding>
						<system value="http://terminology.hl7.org/CodeSystem/v2-0074"/>
						<code value="MB"/>
						<display value="microbiology"/>
					</coding>
					<text value="Micro"/>
				</category>
				<category>
					<coding>
						<system value="urn:oid:2.16.840.1.113883.9.195.4.61"/>
						<code value="RSLT"/>
						<display value="Result"/>
					</coding>
				</category>
				<code>
					<coding>
						<system value="http://loinc.org"/>
						<code value="664-3"/>
						<display value="Gram Stn Spec"/>
					</coding>
					<coding>
						<system value="https://acme.org/codes"/>
						<code value="GMST"/>
						<display value="Gram Stain"/>
					</coding>
					<text value="Gram Stain"/>
				</code>
				<subject>
					<reference value="Patient/example"/>
				</subject>
				<effectiveDateTime value="2016-08-18"/>
				<issued value="2016-08-18T23:06:32Z"/>
				<performer>
					<reference value="Organization/example"/>
				</performer>
				<component>
					<code>
						<coding>
							<system value="http://loinc.org"/>
							<code value="664-3"/>
							<display value="Gram Stn Spec"/>
						</coding>
						<text value="Gram Stain"/>
					</code>
					<valueCodeableConcept>
						<coding>
							<system value="https://acme.org/codes"/>
							<code value="MOD"/>
							<display value="Moderate"/>
						</coding>
						<text value="Moderate"/>
					</valueCodeableConcept>
				</component>
				<component>
					<code>
						<coding>
							<system value="http://loinc.org"/>
							<code value="664-3"/>
							<display value="Gram Stn Spec"/>
						</coding>
						<text value="Gram Stain"/>
					</code>
					<valueCodeableConcept>
						<coding>
							<system value="https://acme.org/codes"/>
							<code value="GPR"/>
							<display value="Moderate"/>
						</coding>
						<text value="Gram Positive Rods"/>
					</valueCodeableConcept>
				</component>
			</Observation>
		</resource>
	</entry>
	<entry>
		<fullUrl value="[%test-server%]/Observation/lri-gramstain3"/>
		<resource>
			<Observation>
				<id value="lri-gramstain3"/>
				<identifier>
					<system value="https://acme.org/identifiers"/>
					<value value="gramstain3"/>
				</identifier>
				<status value="final"/>
				<category>
					<coding>
						<system value="http://terminology.hl7.org/CodeSystem/observation-category"/>
						<code value="laboratory"/>
						<display value="Laboratory"/>
					</coding>
					<coding>
						<system value="http://terminology.hl7.org/CodeSystem/v2-0074"/>
						<code value="MB"/>
						<display value="microbiology"/>
					</coding>
					<text value="Micro"/>
				</category>
				<category>
					<coding>
						<system value="urn:oid:2.16.840.1.113883.9.195.4.61"/>
						<code value="RSLT"/>
						<display value="Result"/>
					</coding>
				</category>
				<code>
					<coding>
						<system value="http://loinc.org"/>
						<code value="664-3"/>
						<display value="Gram Stn Spec"/>
					</coding>
					<coding>
						<system value="https://acme.org/codes"/>
						<code value="GMST"/>
						<display value="Gram Stain"/>
					</coding>
					<text value="Gram Stain"/>
				</code>
				<subject>
					<reference value="Patient/example"/>
				</subject>
				<effectiveDateTime value="2016-08-18"/>
				<issued value="2016-08-18T23:06:32Z"/>
				<performer>
					<reference value="Organization/example"/>
				</performer>
				<component>
					<code>
						<coding>
							<system value="http://loinc.org"/>
							<code value="664-3"/>
							<display value="Gram Stn Spec"/>
						</coding>
						<text value="Gram Stain"/>
					</code>
					<valueCodeableConcept>
						<coding>
							<system value="https://acme.org/codes"/>
							<code value="MOD"/>
							<display value="Moderate"/>
						</coding>
						<text value="Moderate"/>
					</valueCodeableConcept>
				</component>
				<component>
					<code>
						<coding>
							<system value="http://loinc.org"/>
							<code value="664-3"/>
							<display value="Gram Stn Spec"/>
						</coding>
						<text value="Gram Stain"/>
					</code>
					<valueCodeableConcept>
						<coding>
							<system value="https://acme.org/codes"/>
							<code value="GPCCH"/>
							<display value="Gram Positive Cocci in Chains"/>
						</coding>
						<text value="Gram Positive Cocci in Chains"/>
					</valueCodeableConcept>
				</component>
			</Observation>
		</resource>
	</entry>
	<entry>
		<fullUrl value="[%test-server%]/Observation/lri-gramstain4"/>
		<resource>
			<Observation>
				<id value="lri-gramstain4"/>
				<identifier>
					<system value="https://acme.org/identifiers"/>
					<value value="gramstain4"/>
				</identifier>
				<status value="final"/>
				<category>
					<coding>
						<system value="http://terminology.hl7.org/CodeSystem/observation-category"/>
						<code value="laboratory"/>
						<display value="Laboratory"/>
					</coding>
					<coding>
						<system value="http://terminology.hl7.org/CodeSystem/v2-0074"/>
						<code value="MB"/>
						<display value="microbiology"/>
					</coding>
					<text value="Micro"/>
				</category>
				<category>
					<coding>
						<system value="urn:oid:2.16.840.1.113883.9.195.4.61"/>
						<code value="RSLT"/>
						<display value="Result"/>
					</coding>
				</category>
				<code>
					<coding>
						<system value="http://loinc.org"/>
						<code value="664-3"/>
						<display value="Gram Stn Spec"/>
					</coding>
					<coding>
						<system value="https://acme.org/codes"/>
						<code value="GMST"/>
						<display value="Gram Stain"/>
					</coding>
					<text value="Gram Stain"/>
				</code>
				<subject>
					<reference value="Patient/example"/>
				</subject>
				<effectiveDateTime value="2016-08-18"/>
				<issued value="2016-08-18T23:06:32Z"/>
				<performer>
					<reference value="Organization/example"/>
				</performer>
				<component>
					<code>
						<coding>
							<system value="http://loinc.org"/>
							<code value="664-3"/>
							<display value="Gram Stn Spec"/>
						</coding>
						<text value="Gram Stain"/>
					</code>
					<valueCodeableConcept>
						<coding>
							<system value="https://acme.org/codes"/>
							<code value="MNY"/>
							<display value="Many"/>
						</coding>
						<text value="Many"/>
					</valueCodeableConcept>
				</component>
				<component>
					<code>
						<coding>
							<system value="http://loinc.org"/>
							<code value="664-3"/>
							<display value="Gram Stn Spec"/>
						</coding>
						<text value="Gram Stain"/>
					</code>
					<valueCodeableConcept>
						<coding>
							<system value="https://acme.org/codes"/>
							<code value="GNR"/>
							<display value="Gram Negative Rods"/>
						</coding>
						<text value="Gram Negative Rods"/>
					</valueCodeableConcept>
				</component>
			</Observation>
		</resource>
	</entry>
	<entry>
		<fullUrl value="[%test-server%]/Observation/lri-growth1"/>
		<resource>
			<Observation>
				<id value="lri-growth1"/>
				<identifier>
					<system value="https://acme.org/identifiers"/>
					<value value="growth1"/>
				</identifier>
				<status value="final"/>
				<category>
					<coding>
						<system value="http://terminology.hl7.org/CodeSystem/observation-category"/>
						<code value="laboratory"/>
						<display value="Laboratory"/>
					</coding>
					<coding>
						<system value="http://terminology.hl7.org/CodeSystem/v2-0074"/>
						<code value="MB"/>
						<display value="microbiology"/>
					</coding>
					<text value="Micro"/>
				</category>
				<category>
					<coding>
						<system value="urn:oid:2.16.840.1.113883.9.195.4.61"/>
						<code value="RSLT"/>
						<display value="Result"/>
					</coding>
				</category>
				<code>
					<coding>
						<system value="http://loinc.org"/>
						<code value="624-7"/>
						<display value="Bacteria Spt Resp Cult"/>
					</coding>
					<coding>
						<system value="https://acme.org/codes"/>
						<code value="GROWTH"/>
						<display value="Growth"/>
					</coding>
					<text value="Aerobic Respiratory Culture, Sputum"/>
				</code>
				<subject>
					<reference value="Patient/example"/>
				</subject>
				<effectiveDateTime value="2016-08-18"/>
				<issued value="2016-08-18T23:06:32Z"/>
				<performer>
					<reference value="Organization/example"/>
				</performer>
				<valueCodeableConcept>
					<coding>
						<system value="http://snomed.info/sct"/>
						<code value="263812008"/>
						<display value="Moderate Growth"/>
					</coding>
					<text value="Moderate Growth"/>
				</valueCodeableConcept>
			</Observation>
		</resource>
	</entry>
	<entry>
		<fullUrl value="[%test-server%]/Observation/lri-growth2"/>
		<resource>
			<Observation>
				<id value="lri-growth2"/>
				<identifier>
					<system value="https://acme.org/identifiers"/>
					<value value="growth2"/>
				</identifier>
				<status value="final"/>
				<category>
					<coding>
						<system value="http://terminology.hl7.org/CodeSystem/observation-category"/>
						<code value="laboratory"/>
						<display value="Laboratory"/>
					</coding>
					<coding>
						<system value="http://terminology.hl7.org/CodeSystem/v2-0074"/>
						<code value="MB"/>
						<display value="microbiology"/>
					</coding>
					<text value="Micro"/>
				</category>
				<category>
					<coding>
						<system value="urn:oid:2.16.840.1.113883.9.195.4.61"/>
						<code value="RSLT"/>
						<display value="Result"/>
					</coding>
				</category>
				<code>
					<coding>
						<system value="http://loinc.org"/>
						<code value="624-7"/>
						<display value="Bacteria Spt Resp Cult"/>
					</coding>
					<coding>
						<system value="https://acme.org/codes"/>
						<code value="GROWTH"/>
						<display value="Growth"/>
					</coding>
					<text value="Aerobic Respiratory Culture, Sputum"/>
				</code>
				<subject>
					<reference value="Patient/example"/>
				</subject>
				<effectiveDateTime value="2016-08-18"/>
				<issued value="2016-08-18T23:06:32Z"/>
				<performer>
					<reference value="Organization/example"/>
				</performer>
				<valueCodeableConcept>
					<coding>
						<system value="http://snomed.info/sct"/>
						<code value="263776006"/>
						<display value="Heavy growth"/>
					</coding>
					<text value="Heavy growth"/>
				</valueCodeableConcept>
			</Observation>
		</resource>
	</entry>
	<entry>
		<fullUrl value="[%test-server%]/Observation/lri-growth3"/>
		<resource>
			<Observation>
				<id value="lri-growth3"/>
				<identifier>
					<system value="https://acme.org/identifiers"/>
					<value value="growth3"/>
				</identifier>
				<status value="final"/>
				<category>
					<coding>
						<system value="http://terminology.hl7.org/CodeSystem/observation-category"/>
						<code value="laboratory"/>
						<display value="Laboratory"/>
					</coding>
					<coding>
						<system value="http://terminology.hl7.org/CodeSystem/v2-0074"/>
						<code value="MB"/>
						<display value="microbiology"/>
					</coding>
					<text value="Micro"/>
				</category>
				<category>
					<coding>
						<system value="urn:oid:2.16.840.1.113883.9.195.4.61"/>
						<code value="RSLT"/>
						<display value="Result"/>
					</coding>
				</category>
				<code>
					<coding>
						<system value="http://loinc.org"/>
						<code value="624-7"/>
						<display value="Bacteria Spt Resp Cult"/>
					</coding>
					<coding>
						<system value="https://acme.org/codes"/>
						<code value="GROWTH"/>
						<display value="Growth"/>
					</coding>
					<text value="Aerobic Respiratory Culture, Sputum"/>
				</code>
				<subject>
					<reference value="Patient/example"/>
				</subject>
				<effectiveDateTime value="2016-08-18"/>
				<issued value="2016-08-18T23:06:32Z"/>
				<performer>
					<reference value="Organization/example"/>
				</performer>
				<valueCodeableConcept>
					<coding>
						<system value="http://snomed.info/sct"/>
						<code value="263776006"/>
						<display value="Heavy growth"/>
					</coding>
					<text value="Heavy growth"/>
				</valueCodeableConcept>
			</Observation>
		</resource>
	</entry>
	<entry>
		<fullUrl value="[%test-server%]/Observation/lri-org2-amp"/>
		<resource>
			<Observation>
				<id value="lri-org2-amp"/>
				<identifier>
					<system value="https://acme.org/identifiers"/>
					<value value="org2-amp"/>
				</identifier>
				<status value="final"/>
				<category>
					<coding>
						<system value="http://terminology.hl7.org/CodeSystem/observation-category"/>
						<code value="laboratory"/>
						<display value="Laboratory"/>
					</coding>
					<coding>
						<system value="http://terminology.hl7.org/CodeSystem/v2-0074"/>
						<code value="MB"/>
						<display value="microbiology"/>
					</coding>
					<text value="Micro"/>
				</category>
				<category>
					<coding>
						<system value="urn:oid:2.16.840.1.113883.9.195.4.61"/>
						<code value="RSLT"/>
						<display value="Result"/>
					</coding>
				</category>
				<code>
					<coding>
						<system value="http://loinc.org"/>
						<code value="28-1"/>
						<display value="Ampicillin Islt MIC"/>
					</coding>
					<coding>
						<system value="https://acme.org/codes"/>
						<code value="AMPMIC"/>
						<display value="Ampicilin MIC"/>
					</coding>
					<text value="Ampicilin MIC"/>
				</code>
				<subject>
					<reference value="Patient/example"/>
				</subject>
				<effectiveDateTime value="2016-08-18"/>
				<issued value="2016-08-18T23:06:32Z"/>
				<performer>
					<reference value="Organization/example"/>
				</performer>
				<valueQuantity>
					<value value="0.06"/>
					<comparator value="&lt;"/>
					<unit value="ug/ml"/>
					<system value="http://unitsofmeasure.org"/>
					<code value="ug/mL"/>
				</valueQuantity>
				<interpretation>
					<coding>
						<system value="http://terminology.hl7.org/CodeSystem/v3-ObservationInterpretation"/>
						<code value="S"/>
						<display value="Susceptible"/>
					</coding>
				</interpretation>
			</Observation>
		</resource>
	</entry>
	<entry>
		<fullUrl value="[%test-server%]/Observation/lri-org2-cip"/>
		<resource>
			<Observation>
				<id value="lri-org2-cip"/>
				<identifier>
					<system value="https://acme.org/identifiers"/>
					<value value="org2-cip"/>
				</identifier>
				<status value="final"/>
				<category>
					<coding>
						<system value="http://terminology.hl7.org/CodeSystem/observation-category"/>
						<code value="laboratory"/>
						<display value="Laboratory"/>
					</coding>
					<coding>
						<system value="http://terminology.hl7.org/CodeSystem/v2-0074"/>
						<code value="MB"/>
						<display value="microbiology"/>
					</coding>
					<text value="Micro"/>
				</category>
				<category>
					<coding>
						<system value="urn:oid:2.16.840.1.113883.9.195.4.61"/>
						<code value="RSLT"/>
						<display value="Result"/>
					</coding>
				</category>
				<code>
					<coding>
						<system value="http://loinc.org"/>
						<code value="185-9"/>
						<display value="Ciprofloxacin Islt MIC"/>
					</coding>
					<coding>
						<system value="https://acme.org/codes"/>
						<code value="CIPMIC"/>
						<display value="Ciprofloxacin MIC"/>
					</coding>
					<text value="Ciprofloxacin MIC"/>
				</code>
				<subject>
					<reference value="Patient/example"/>
				</subject>
				<effectiveDateTime value="2016-08-18"/>
				<issued value="2016-08-18T23:06:32Z"/>
				<performer>
					<reference value="Organization/example"/>
				</performer>
				<valueQuantity>
					<value value="0.05"/>
					<comparator value="&lt;"/>
					<unit value="ug/ml"/>
					<system value="http://unitsofmeasure.org"/>
					<code value="ug/mL"/>
				</valueQuantity>
				<interpretation>
					<coding>
						<system value="http://terminology.hl7.org/CodeSystem/v3-ObservationInterpretation"/>
						<code value="S"/>
						<display value="Susceptible"/>
					</coding>
				</interpretation>
			</Observation>
		</resource>
	</entry>
	<entry>
		<fullUrl value="[%test-server%]/Observation/lri-org2-gent"/>
		<resource>
			<Observation>
				<id value="lri-org2-gent"/>
				<identifier>
					<system value="https://acme.org/identifiers"/>
					<value value="org2-gent"/>
				</identifier>
				<status value="final"/>
				<category>
					<coding>
						<system value="http://terminology.hl7.org/CodeSystem/observation-category"/>
						<code value="laboratory"/>
						<display value="Laboratory"/>
					</coding>
					<coding>
						<system value="http://terminology.hl7.org/CodeSystem/v2-0074"/>
						<code value="MB"/>
						<display value="microbiology"/>
					</coding>
					<text value="Micro"/>
				</category>
				<category>
					<coding>
						<system value="urn:oid:2.16.840.1.113883.9.195.4.61"/>
						<code value="RSLT"/>
						<display value="Result"/>
					</coding>
				</category>
				<code>
					<coding>
						<system value="http://loinc.org"/>
						<code value="267-5"/>
						<display value="Gentamicin Islt MIC"/>
					</coding>
					<coding>
						<system value="https://acme.org/codes"/>
						<code value="CIPMIC"/>
						<display value="Gentamicin MIC"/>
					</coding>
					<text value="Gentamicin MIC"/>
				</code>
				<subject>
					<reference value="Patient/example"/>
				</subject>
				<effectiveDateTime value="2016-08-18"/>
				<issued value="2016-08-18T23:06:32Z"/>
				<performer>
					<reference value="Organization/example"/>
				</performer>
				<valueQuantity>
					<value value="0.05"/>
					<comparator value="&lt;"/>
					<unit value="ug/ml"/>
					<system value="http://unitsofmeasure.org"/>
					<code value="ug/mL"/>
				</valueQuantity>
				<interpretation>
					<coding>
						<system value="http://terminology.hl7.org/CodeSystem/v3-ObservationInterpretation"/>
						<code value="S"/>
						<display value="Susceptible"/>
					</coding>
				</interpretation>
			</Observation>
		</resource>
	</entry>
	<entry>
		<fullUrl value="[%test-server%]/Observation/lri-org3-amp"/>
		<resource>
			<Observation>
				<id value="lri-org3-amp"/>
				<identifier>
					<system value="https://acme.org/identifiers"/>
					<value value="org3-amp"/>
				</identifier>
				<status value="final"/>
				<category>
					<coding>
						<system value="http://terminology.hl7.org/CodeSystem/observation-category"/>
						<code value="laboratory"/>
						<display value="Laboratory"/>
					</coding>
					<coding>
						<system value="http://terminology.hl7.org/CodeSystem/v2-0074"/>
						<code value="MB"/>
						<display value="microbiology"/>
					</coding>
					<text value="Micro"/>
				</category>
				<category>
					<coding>
						<system value="urn:oid:2.16.840.1.113883.9.195.4.61"/>
						<code value="RSLT"/>
						<display value="Result"/>
					</coding>
				</category>
				<code>
					<coding>
						<system value="http://loinc.org"/>
						<code value="28-1"/>
						<display value="Ampicillin Islt MIC"/>
					</coding>
					<coding>
						<system value="https://acme.org/codes"/>
						<code value="AMPMIC"/>
						<display value="Ampicilin MIC"/>
					</coding>
					<text value="Ampicilin MIC"/>
				</code>
				<subject>
					<reference value="Patient/example"/>
				</subject>
				<effectiveDateTime value="2016-08-18"/>
				<issued value="2016-08-18T23:06:32Z"/>
				<performer>
					<reference value="Organization/example"/>
				</performer>
				<valueQuantity>
					<value value="0.06"/>
					<comparator value="&lt;"/>
					<unit value="ug/ml"/>
					<system value="http://unitsofmeasure.org"/>
					<code value="ug/mL"/>
				</valueQuantity>
				<interpretation>
					<coding>
						<system value="http://terminology.hl7.org/CodeSystem/v3-ObservationInterpretation"/>
						<code value="S"/>
						<display value="Susceptible"/>
					</coding>
				</interpretation>
			</Observation>
		</resource>
	</entry>
	<entry>
		<fullUrl value="[%test-server%]/Observation/lri-org3-cip"/>
		<resource>
			<Observation>
				<id value="lri-org3-cip"/>
				<identifier>
					<system value="https://acme.org/identifiers"/>
					<value value="org3-cip"/>
				</identifier>
				<status value="final"/>
				<category>
					<coding>
						<system value="http://terminology.hl7.org/CodeSystem/observation-category"/>
						<code value="laboratory"/>
						<display value="Laboratory"/>
					</coding>
					<coding>
						<system value="http://terminology.hl7.org/CodeSystem/v2-0074"/>
						<code value="MB"/>
						<display value="microbiology"/>
					</coding>
					<text value="Micro"/>
				</category>
				<category>
					<coding>
						<system value="urn:oid:2.16.840.1.113883.9.195.4.61"/>
						<code value="RSLT"/>
						<display value="Result"/>
					</coding>
				</category>
				<code>
					<coding>
						<system value="http://loinc.org"/>
						<code value="185-9"/>
						<display value="Ciprofloxacin Islt MIC"/>
					</coding>
					<coding>
						<system value="https://acme.org/codes"/>
						<code value="CIPMIC"/>
						<display value="Ciprofloxacin MIC"/>
					</coding>
					<text value="Ciprofloxacin MIC"/>
				</code>
				<subject>
					<reference value="Patient/example"/>
				</subject>
				<effectiveDateTime value="2016-08-18"/>
				<issued value="2016-08-18T23:06:32Z"/>
				<performer>
					<reference value="Organization/example"/>
				</performer>
				<valueQuantity>
					<value value="0.05"/>
					<comparator value="&lt;"/>
					<unit value="ug/ml"/>
					<system value="http://unitsofmeasure.org"/>
					<code value="ug/mL"/>
				</valueQuantity>
				<interpretation>
					<coding>
						<system value="http://terminology.hl7.org/CodeSystem/v3-ObservationInterpretation"/>
						<code value="S"/>
						<display value="Susceptible"/>
					</coding>
				</interpretation>
			</Observation>
		</resource>
	</entry>
	<entry>
		<fullUrl value="[%test-server%]/Observation/lri-org3-gent"/>
		<resource>
			<Observation>
				<id value="lri-org3-gent"/>
				<identifier>
					<system value="https://acme.org/identifiers"/>
					<value value="org3-gent"/>
				</identifier>
				<status value="final"/>
				<category>
					<coding>
						<system value="http://terminology.hl7.org/CodeSystem/observation-category"/>
						<code value="laboratory"/>
						<display value="Laboratory"/>
					</coding>
					<coding>
						<system value="http://terminology.hl7.org/CodeSystem/v2-0074"/>
						<code value="MB"/>
						<display value="microbiology"/>
					</coding>
					<text value="Micro"/>
				</category>
				<code>
					<coding>
						<system value="http://loinc.org"/>
						<code value="267-5"/>
						<display value="Gentamicin Islt MIC"/>
					</coding>
					<text value="Gentamicin MIC"/>
				</code>
				<subject>
					<reference value="Patient/example"/>
				</subject>
				<effectiveDateTime value="2016-08-18"/>
				<issued value="2016-08-18T23:06:32Z"/>
				<performer>
					<reference value="Organization/example"/>
				</performer>
				<valueQuantity>
					<value value="0.05"/>
					<comparator value="&lt;"/>
					<unit value="ug/ml"/>
					<system value="http://unitsofmeasure.org"/>
					<code value="ug/mL"/>
				</valueQuantity>
				<interpretation>
					<coding>
						<system value="http://terminology.hl7.org/CodeSystem/v3-ObservationInterpretation"/>
						<code value="S"/>
						<display value="Susceptible"/>
					</coding>
				</interpretation>
			</Observation>
		</resource>
	</entry>
	<entry>
		<fullUrl value="[%test-server%]/Observation/lri-organism1"/>
		<resource>
			<Observation>
				<id value="lri-organism1"/>
				<identifier>
					<system value="https://acme.org/identifiers"/>
					<value value="organism1"/>
				</identifier>
				<status value="final"/>
				<category>
					<coding>
						<system value="http://terminology.hl7.org/CodeSystem/observation-category"/>
						<code value="laboratory"/>
						<display value="Laboratory"/>
					</coding>
					<coding>
						<system value="http://terminology.hl7.org/CodeSystem/v2-0074"/>
						<code value="MB"/>
						<display value="microbiology"/>
					</coding>
					<text value="Micro"/>
				</category>
				<category>
					<coding>
						<system value="urn:oid:2.16.840.1.113883.9.195.4.61"/>
						<code value="RSLT"/>
						<display value="Result"/>
					</coding>
				</category>
				<code>
					<coding>
						<system value="http://loinc.org"/>
						<code value="624-7"/>
						<display value="Bacteria Spt Resp Cult"/>
					</coding>
					<coding>
						<system value="https://acme.org/codes"/>
						<code value="CULTID"/>
						<display value="Culture ID"/>
					</coding>
					<text value="Aerobic Respiratory Culture, Sputum"/>
				</code>
				<subject>
					<reference value="Patient/example"/>
				</subject>
				<effectiveDateTime value="2016-08-18"/>
				<issued value="2016-08-18T23:06:32Z"/>
				<performer>
					<reference value="Organization/example"/>
				</performer>
				<valueCodeableConcept>
					<coding>
						<system value="http://snomed.info/sct"/>
						<code value="23506009"/>
						<display value="Normal flora"/>
					</coding>
					<text value="Normal flora"/>
				</valueCodeableConcept>
				<hasMember>
					<reference value="Observation/lri-growth1"/>
					<display value="Moderate growth"/>
				</hasMember>
			</Observation>
		</resource>
	</entry>
	<entry>
		<fullUrl value="[%test-server%]/Observation/lri-organism2"/>
		<resource>
			<Observation>
				<id value="lri-organism2"/>
				<identifier>
					<system value="https://acme.org/identifiers"/>
					<value value="organism2"/>
				</identifier>
				<status value="final"/>
				<category>
					<coding>
						<system value="http://terminology.hl7.org/CodeSystem/observation-category"/>
						<code value="laboratory"/>
						<display value="Laboratory"/>
					</coding>
					<coding>
						<system value="http://terminology.hl7.org/CodeSystem/v2-0074"/>
						<code value="MB"/>
						<display value="microbiology"/>
					</coding>
					<text value="Micro"/>
				</category>
				<category>
					<coding>
						<system value="urn:oid:2.16.840.1.113883.9.195.4.61"/>
						<code value="RSLT"/>
						<display value="Result"/>
					</coding>
				</category>
				<code>
					<coding>
						<system value="http://loinc.org"/>
						<code value="624-7"/>
						<display value="Bacteria Spt Resp Cult"/>
					</coding>
					<coding>
						<system value="https://acme.org/codes"/>
						<code value="CULTID"/>
						<display value="Culture ID"/>
					</coding>
					<text value="Aerobic Respiratory Culture, Sputum"/>
				</code>
				<subject>
					<reference value="Patient/example"/>
				</subject>
				<effectiveDateTime value="2016-08-18"/>
				<issued value="2016-08-18T23:06:32Z"/>
				<performer>
					<reference value="Organization/example"/>
				</performer>
				<valueCodeableConcept>
					<coding>
						<system value="http://snomed.info/sct"/>
						<code value="56415008"/>
						<display value="Klebsiella pneumoniae"/>
					</coding>
					<text value="Klebsiella pneumoniae"/>
				</valueCodeableConcept>
				<hasMember>
					<reference value="Observation/lri-growth2"/>
					<display value="Heavy growth"/>
				</hasMember>
				<hasMember>
					<reference value="Observation/lri-org2-amp"/>
					<display value="Ampicillin MIC - Susceptible"/>
				</hasMember>
				<hasMember>
					<reference value="Observation/lri-org2-cip"/>
					<display value="Ciprofloxacin MIC - Susceptible"/>
				</hasMember>
				<hasMember>
					<reference value="Observation/lri-org2-gent"/>
					<display value="Gentamicin MIC  - Susceptible"/>
				</hasMember>
			</Observation>
		</resource>
	</entry>
	<entry>
		<fullUrl value="[%test-server%]/Observation/lri-organism3"/>
		<resource>
			<Observation>
				<id value="lri-organism3"/>
				<identifier>
					<system value="https://acme.org/identifiers"/>
					<value value="organism3"/>
				</identifier>
				<status value="final"/>
				<category>
					<coding>
						<system value="http://terminology.hl7.org/CodeSystem/observation-category"/>
						<code value="laboratory"/>
						<display value="Laboratory"/>
					</coding>
					<coding>
						<system value="http://terminology.hl7.org/CodeSystem/v2-0074"/>
						<code value="MB"/>
						<display value="microbiology"/>
					</coding>
					<text value="Micro"/>
				</category>
				<category>
					<coding>
						<system value="urn:oid:2.16.840.1.113883.9.195.4.61"/>
						<code value="RSLT"/>
						<display value="Result"/>
					</coding>
				</category>
				<code>
					<coding>
						<system value="http://loinc.org"/>
						<code value="624-7"/>
						<display value="Bacteria Spt Resp Cult"/>
					</coding>
					<coding>
						<system value="https://acme.org/codes"/>
						<code value="CULTID"/>
						<display value="Culture ID"/>
					</coding>
					<text value="Aerobic Respiratory Culture, Sputum"/>
				</code>
				<subject>
					<reference value="Patient/example"/>
				</subject>
				<effectiveDateTime value="2016-08-18"/>
				<issued value="2016-08-18T23:06:32Z"/>
				<performer>
					<reference value="Organization/example"/>
				</performer>
				<valueCodeableConcept>
					<coding>
						<system value="http://snomed.info/sct"/>
						<code value="3092008"/>
						<display value="Staphylococcus aureus"/>
					</coding>
					<text value="Staphylococcus aureus"/>
				</valueCodeableConcept>
				<hasMember>
					<reference value="Observation/lri-growth3"/>
					<display value="Heavy growth"/>
				</hasMember>
				<hasMember>
					<reference value="Observation/lri-org3-amp"/>
					<display value="Ampicillin MIC - Susceptible"/>
				</hasMember>
				<hasMember>
					<reference value="Observation/lri-org3-cip"/>
					<display value="Ciprofloxacin MIC - Susceptible"/>
				</hasMember>
				<hasMember>
					<reference value="Observation/lri-org3-gent"/>
					<display value="Gentamicin MIC  - Susceptible"/>
				</hasMember>
			</Observation>
		</resource>
	</entry>
</Bundle>