{
    "resourceType": "DiagnosticReport",
    "id": "dgr-1.p2.pass",
    "contained": [
        {
            "resourceType": "Composition",
            "id": "comp",
            "status": "final",
            "type": {
                "coding": [
                    {
                        "system": "http://loinc.org",
                        "code": "LP29684-5"
                    }
                ]
            },
            "subject": {
                "reference": "Patient/b248b1b2-1686-4b94-9936-37d7a5f94b51"
            },
            "date": "2013-02-13T11:45:33+11:00",
            "author": [
                {
                    "reference": "Practitioner/example"
                }
            ],
            "title": "Diagnostic Report",
            "section": [
                {
                    "entry": [
                        {
                            "reference": "#obs2"
                        },
                        {
                            "reference": "#obs1"
                        }
                    ]
                },
                {
                    "entry": [
                        {
                            "reference": "#foo"
                        },
                        {
                            "reference": "#bar"
                        }
                    ]
                }
            ]
        },
        {
            "resourceType": "Basic",
            "id": "foo",
            "code": {
                "coding": [
                    {
                        "system": "http://loinc.org",
                        "code": "LP29684-5"
                    }
                ]
            }
        },
        {
            "resourceType": "Basic",
            "id": "bar",
            "code": {
                "coding": [
                    {
                        "system": "http://loinc.org",
                        "code": "LP29684-5"
                    }
                ]
            } 
        },
        {
            "resourceType": "Observation",
            "id": "obs1",
            "status": "final",
            "code": {
                "coding": [
                    {
                        "system": "http://loinc.org",
                        "code": "47527-7"
                    }
                ]
            },
            "subject": {
                "reference": "Patient/b248b1b2-1686-4b94-9936-37d7a5f94b51"
            },
            "effectiveDateTime": "2013-02-11T10:33:33+11:00",
            "issued": "2013-02-13T11:45:33+11:00",
            "valueQuantity": {
                "value": 1.0,
                "unit": "mg/dL",
                "system": "http://unitsofmeasure.org",
                "code": "mg/dL"
            },
            "hasMember": [{
                "reference": "#obs2"
            }]
        },
        {
            "resourceType": "Observation",
            "id": "obs2",
            "status": "final",
            "code": {
                "coding": [
                    {
                        "system": "http://loinc.org",
                        "code": "47527-7"
                    }
                ]
            },
            "subject": {
                "reference": "Patient/b248b1b2-1686-4b94-9936-37d7a5f94b51"
            },
            "effectiveDateTime": "2013-02-11T10:33:33+11:00",
            "issued": "2013-02-13T11:45:33+11:00",
            "valueQuantity": {
                "value": 1.0,
                "unit": "mg/dL",
                "system": "http://unitsofmeasure.org",
                "code": "mg/dL"
            }
        }
    ],
    "status": "final",
    "code": {
        "coding": [
            {
                "system": "http://loinc.org",
                "code": "47527-7"
            }
        ]
    },
    "subject": {
        "reference": "Patient/b248b1b2-1686-4b94-9936-37d7a5f94b51"
    },
    "effectiveDateTime": "2013-02-11T10:33:33+11:00",
    "issued": "2013-02-13T11:45:33+11:00",
    "performer": [
        {
            "reference": "Practitioner/example"
        }
    ],
    "result": [
        {
            "reference": "#obs1"
        }
    ],
    "composition": {
        "reference": "#comp"
    }
}