<?xml version="1.0" encoding="UTF-8"?>
<Parameters xmlns="http://hl7.org/fhir" xmlns:xsi="http://www.w3.org/2001/XMLSchema-instance" xsi:schemaLocation="http://hl7.org/fhir ../../schema/fhir-single.xsd">
  <id value="evaluate-operation-request-example"/>
  <!--  This example demonstrates the $evaluate operation against a DecisionSupportServiceModule resource. -->
  <parameter>
    <name value="requestId"/>
    <valueString value="guidanceRequest1"/>
  </parameter>
  <parameter>
    <name value="setting"/>
    <valueCoding>
      <system value="http://hl7.org/fhir/encounter-class"/>
      <code value="inpatient"/>
    </valueCoding>
  </parameter>
  <parameter>
    <name value="patient"/>
    <resource>
      <Patient>
        <id value="example"/>
        <meta>
          <profile value="http://hl7.org/fhir/StructureDefinition/qicore-patient"/>
          <profile value="http://hl7.org/fhir/StructureDefinition/gao-patient"/>
        </meta>
        <text>
          <status value="generated"/>
          <div xmlns="http://www.w3.org/1999/xhtml">
        </div>
        </text>
        <!--  MRN assigned by ACME healthcare on 6-May 2001  -->
        <identifier>
          <use value="usual"/>
          <type>
            <coding>
              <system value="http://terminology.hl7.org/CodeSystem/v2-0203"/>
              <code value="MRN"/>
            </coding>
          </type>
          <system value="urn:oid:1.2.36.146.595.217.0.1"/>
          <value value="12345"/>
          <period>
            <start value="2001-05-06"/>
          </period>
          <assigner>
            <display value="Acme Healthcare"/>
          </assigner>
        </identifier>
        <active value="true"/>
        <!--  Peter James Chalmers, but called "Jim"  -->
        <name>
          <use value="official"/>
          <family value="Chalmers"/>
          <given value="Peter"/>
          <given value="James"/>
        </name>
        <name>
          <use value="usual"/>
          <given value="Jim"/>
        </name>
        <telecom>
          <use value="home"/>
          <!--  home communication details aren't known  -->
        </telecom>
        <telecom>
          <system value="phone"/>
          <value value="(03) 5555 6473"/>
          <use value="work"/>
        </telecom>
        <!--  use FHIR code system for male / female  -->
        <gender value="male"/>
        <birthDate value="1974-12-25">
          <extension url="http://hl7.org/fhir/StructureDefinition/patient-birthTime">
            <valueDateTime value="1974-12-25T14:35:45-05:00"/>
          </extension>
        </birthDate>
        <deceasedBoolean value="false"/>
        <address>
          <use value="home"/>
          <line value="534 Erewhon St"/>
          <city value="PleasantVille"/>
          <state value="Vic"/>
          <postalCode value="3999"/>
        </address>
        <contact>
          <relationship>
            <coding>
              <system value="http://example.org/fhir/CodeSystem/patient-contact-relationship"/>
              <code value="partner"/>
            </coding>
          </relationship>
          <name>
            <family value="du">
              <!--  the "du" part is a family name prefix (VV in iso 21090)  -->
              <extension url="http://hl7.org/fhir/StructureDefinition/iso21090-EN-qualifier">
                <valueCode value="VV"/>
              </extension>
            </family>
            <family value="Marché"/>
            <given value="Bénédicte"/>
          </name>
          <telecom>
            <system value="phone"/>
            <value value="+33 (237) 998327"/>
          </telecom>
        </contact>
        <managingOrganization>
          <reference value="Organization/1"/>
        </managingOrganization>
      </Patient>
    </resource>
  </parameter>
  <parameter>
    <name value="order"/>
    <resource>
      <Order>
        <id value="order1"/>
        <meta>
          <profile value="http://hl7.org/fhir/StructureDefinition/gao-order"/>
        </meta>
        <text>
          <status value="generated"/>
          <div xmlns="http://www.w3.org/1999/xhtml">

        </div>
        </text>
        <contained>
          <ServiceRequest>
            <id value="ServiceRequest1"/>
            <meta>
              <profile value="http://hl7.org/fhir/StructureDefinition/gao-servicerequest"/>
            </meta>
            <subject>
              <reference value="Patient/example"/>
            </subject>
            <item>
              <code>
                <coding>
                  <!--  TODO: This will need to use the ACR Commons code  -->
                  <system value="http://www.ama-assn.org/go/cpt"/>
                  <code value="70450"/>
                  <display value="Computed tomography, head or brain; without contrast material"/>
                </coding>
              </code>
            </item>
          </ServiceRequest>
        </contained>
        <date value="2012-12-28T09:03:04+11:00"/>
        <subject>
          <reference value="Patient/example"/>
        </subject>
        <source>
          <reference value="Practitioner/example"/>
        </source>
        <reasonCodeableConcept>
          <coding>
            <!--  TODO: This will need to use the ACR Commons code  -->
            <system value="http://hl7.org/fhir/sid/icd-9"/>
            <code value="70450"/>
            <display value="Headache, Chronic, no new features"/>
          </coding>
        </reasonCodeableConcept>
        <detail>
          <reference value="#ServiceRequest1"/>
        </detail>
      </Order>
    </resource>
  </parameter>
</Parameters>
