<?xml version="1.0" encoding="UTF-8"?>

<Citation xmlns="http://hl7.org/fhir">
  <id value="example-for-parachute-rct"/>
  <meta>
    <versionId value="2"/>
    <lastUpdated value="2025-02-06T18:03:52.258Z"/>
    <profile value="http://hl7.org/fhir/uv/ebm/StructureDefinition/journal-article-citation"/>
  </meta>
  <contained>
    <Practitioner>
      <id value="contributor0"/>
      <name>
        <family value="Yeh"/>
        <given value="Robert W"/>
      </name>
    </Practitioner>
  </contained>
  <contained>
    <Practitioner>
      <id value="contributor1"/>
      <name>
        <family value="Valsdottir"/>
        <given value="Linda R"/>
      </name>
    </Practitioner>
  </contained>
  <contained>
    <Practitioner>
      <id value="contributor2"/>
      <name>
        <family value="Yeh"/>
        <given value="Michael W"/>
      </name>
    </Practitioner>
  </contained>
  <contained>
    <Practitioner>
      <id value="contributor3"/>
      <name>
        <family value="Shen"/>
        <given value="Changyu"/>
      </name>
    </Practitioner>
  </contained>
  <contained>
    <Practitioner>
      <id value="contributor4"/>
      <name>
        <family value="Kramer"/>
        <given value="Daniel B"/>
      </name>
    </Practitioner>
  </contained>
  <contained>
    <Practitioner>
      <id value="contributor5"/>
      <name>
        <family value="Strom"/>
        <given value="Jordan B"/>
      </name>
    </Practitioner>
  </contained>
  <contained>
    <Practitioner>
      <id value="contributor6"/>
      <name>
        <family value="Secemsky"/>
        <given value="Eric A"/>
      </name>
    </Practitioner>
  </contained>
  <contained>
    <Practitioner>
      <id value="contributor7"/>
      <name>
        <family value="Healy"/>
        <given value="Joanne L"/>
      </name>
    </Practitioner>
  </contained>
  <contained>
    <Practitioner>
      <id value="contributor8"/>
      <name>
        <family value="Domeier"/>
        <given value="Robert M"/>
      </name>
    </Practitioner>
  </contained>
  <contained>
    <Practitioner>
      <id value="contributor9"/>
      <name>
        <family value="Kazi"/>
        <given value="Dhruv S"/>
      </name>
    </Practitioner>
  </contained>
  <contained>
    <Practitioner>
      <id value="contributor10"/>
      <name>
        <family value="Nallamothu"/>
        <given value="Brahmajee K"/>
      </name>
    </Practitioner>
  </contained>
  <contained>
    <Organization>
      <id value="contributor11"/>
      <name value="PARACHUTE Investigators"/>
    </Organization>
  </contained>
  <contained>
    <ArtifactAssessment>
      <id value="meshHeading0"/>
      <artifactReference>
        <reference value="#"/>
        <type value="Citation"/>
      </artifactReference>
      <content>
        <type>
          <coding>
            <system value="http://terminology.hl7.org/CodeSystem/cited-artifact-classification-type"/>
            <code value="mesh-heading"/>
            <display value="MeSH heading"/>
          </coding>
          <text value="components (if present) include qualifier codings"/>
        </type>
        <classifier>
          <coding>
            <system value="https://meshb.nlm.nih.gov/"/>
            <code value="D000060"/>
            <display value="Accidents, Aviation"/>
            <userSelected value="false"/>
          </coding>
        </classifier>
        <freeToShare value="true"/>
        <component>
          <type>
            <text value="qualifier"/>
          </type>
          <classifier>
            <text value="is not a major topic"/>
          </classifier>
        </component>
        <component>
          <type>
            <text value="qualifier"/>
          </type>
          <classifier>
            <coding>
              <system value="https://meshb.nlm.nih.gov/"/>
              <code value="Q000517"/>
              <display value="prevention &amp; control"/>
            </coding>
          </classifier>
          <component>
            <type>
              <text value="is Major topic"/>
            </type>
            <classifier>
              <coding>
                <code value="N"/>
              </coding>
            </classifier>
          </component>
        </component>
      </content>
      <content>
        <type>
          <coding>
            <system value="http://terminology.hl7.org/CodeSystem/cited-artifact-classification-type"/>
            <code value="mesh-heading"/>
            <display value="MeSH heading"/>
          </coding>
          <text value="components (if present) include qualifier codings"/>
        </type>
        <classifier>
          <coding>
            <system value="https://meshb.nlm.nih.gov/"/>
            <code value="D000328"/>
            <display value="Adult"/>
            <userSelected value="false"/>
          </coding>
        </classifier>
        <freeToShare value="true"/>
        <component>
          <type>
            <text value="qualifier"/>
          </type>
          <classifier>
            <text value="is not a major topic"/>
          </classifier>
        </component>
      </content>
      <content>
        <type>
          <coding>
            <system value="http://terminology.hl7.org/CodeSystem/cited-artifact-classification-type"/>
            <code value="mesh-heading"/>
            <display value="MeSH heading"/>
          </coding>
          <text value="components (if present) include qualifier codings"/>
        </type>
        <classifier>
          <coding>
            <system value="https://meshb.nlm.nih.gov/"/>
            <code value="D000337"/>
            <display value="Aerospace Medicine"/>
            <userSelected value="false"/>
          </coding>
        </classifier>
        <freeToShare value="true"/>
        <component>
          <type>
            <text value="qualifier"/>
          </type>
          <classifier>
            <text value="is not a major topic"/>
          </classifier>
        </component>
        <component>
          <type>
            <text value="qualifier"/>
          </type>
          <classifier>
            <coding>
              <system value="https://meshb.nlm.nih.gov/"/>
              <code value="Q000379"/>
              <display value="methods"/>
            </coding>
          </classifier>
          <component>
            <type>
              <text value="is Major topic"/>
            </type>
            <classifier>
              <coding>
                <code value="Y"/>
              </coding>
            </classifier>
          </component>
        </component>
      </content>
      <content>
        <type>
          <coding>
            <system value="http://terminology.hl7.org/CodeSystem/cited-artifact-classification-type"/>
            <code value="mesh-heading"/>
            <display value="MeSH heading"/>
          </coding>
          <text value="components (if present) include qualifier codings"/>
        </type>
        <classifier>
          <coding>
            <system value="https://meshb.nlm.nih.gov/"/>
            <code value="D000401"/>
            <display value="Aircraft"/>
            <userSelected value="false"/>
          </coding>
        </classifier>
        <freeToShare value="true"/>
        <component>
          <type>
            <text value="qualifier"/>
          </type>
          <classifier>
            <text value="is not a major topic"/>
          </classifier>
        </component>
      </content>
      <content>
        <type>
          <coding>
            <system value="http://terminology.hl7.org/CodeSystem/cited-artifact-classification-type"/>
            <code value="mesh-heading"/>
            <display value="MeSH heading"/>
          </coding>
          <text value="components (if present) include qualifier codings"/>
        </type>
        <classifier>
          <coding>
            <system value="https://meshb.nlm.nih.gov/"/>
            <code value="D003645"/>
            <display value="Death, Sudden"/>
            <userSelected value="false"/>
          </coding>
        </classifier>
        <freeToShare value="true"/>
        <component>
          <type>
            <text value="qualifier"/>
          </type>
          <classifier>
            <text value="is not a major topic"/>
          </classifier>
        </component>
        <component>
          <type>
            <text value="qualifier"/>
          </type>
          <classifier>
            <coding>
              <system value="https://meshb.nlm.nih.gov/"/>
              <code value="Q000517"/>
              <display value="prevention &amp; control"/>
            </coding>
          </classifier>
          <component>
            <type>
              <text value="is Major topic"/>
            </type>
            <classifier>
              <coding>
                <code value="Y"/>
              </coding>
            </classifier>
          </component>
        </component>
      </content>
      <content>
        <type>
          <coding>
            <system value="http://terminology.hl7.org/CodeSystem/cited-artifact-classification-type"/>
            <code value="mesh-heading"/>
            <display value="MeSH heading"/>
          </coding>
          <text value="components (if present) include qualifier codings"/>
        </type>
        <classifier>
          <coding>
            <system value="https://meshb.nlm.nih.gov/"/>
            <code value="D005260"/>
            <display value="Female"/>
            <userSelected value="false"/>
          </coding>
        </classifier>
        <freeToShare value="true"/>
        <component>
          <type>
            <text value="qualifier"/>
          </type>
          <classifier>
            <text value="is not a major topic"/>
          </classifier>
        </component>
      </content>
      <content>
        <type>
          <coding>
            <system value="http://terminology.hl7.org/CodeSystem/cited-artifact-classification-type"/>
            <code value="mesh-heading"/>
            <display value="MeSH heading"/>
          </coding>
          <text value="components (if present) include qualifier codings"/>
        </type>
        <classifier>
          <coding>
            <system value="https://meshb.nlm.nih.gov/"/>
            <code value="D006801"/>
            <display value="Humans"/>
            <userSelected value="false"/>
          </coding>
        </classifier>
        <freeToShare value="true"/>
        <component>
          <type>
            <text value="qualifier"/>
          </type>
          <classifier>
            <text value="is not a major topic"/>
          </classifier>
        </component>
      </content>
      <content>
        <type>
          <coding>
            <system value="http://terminology.hl7.org/CodeSystem/cited-artifact-classification-type"/>
            <code value="mesh-heading"/>
            <display value="MeSH heading"/>
          </coding>
          <text value="components (if present) include qualifier codings"/>
        </type>
        <classifier>
          <coding>
            <system value="https://meshb.nlm.nih.gov/"/>
            <code value="D015601"/>
            <display value="Injury Severity Score"/>
            <userSelected value="false"/>
          </coding>
        </classifier>
        <freeToShare value="true"/>
        <component>
          <type>
            <text value="qualifier"/>
          </type>
          <classifier>
            <text value="is not a major topic"/>
          </classifier>
        </component>
      </content>
      <content>
        <type>
          <coding>
            <system value="http://terminology.hl7.org/CodeSystem/cited-artifact-classification-type"/>
            <code value="mesh-heading"/>
            <display value="MeSH heading"/>
          </coding>
          <text value="components (if present) include qualifier codings"/>
        </type>
        <classifier>
          <coding>
            <system value="https://meshb.nlm.nih.gov/"/>
            <code value="D008297"/>
            <display value="Male"/>
            <userSelected value="false"/>
          </coding>
        </classifier>
        <freeToShare value="true"/>
        <component>
          <type>
            <text value="qualifier"/>
          </type>
          <classifier>
            <text value="is not a major topic"/>
          </classifier>
        </component>
      </content>
      <content>
        <type>
          <coding>
            <system value="http://terminology.hl7.org/CodeSystem/cited-artifact-classification-type"/>
            <code value="mesh-heading"/>
            <display value="MeSH heading"/>
          </coding>
          <text value="components (if present) include qualifier codings"/>
        </type>
        <classifier>
          <coding>
            <system value="https://meshb.nlm.nih.gov/"/>
            <code value="D008875"/>
            <display value="Middle Aged"/>
            <userSelected value="false"/>
          </coding>
        </classifier>
        <freeToShare value="true"/>
        <component>
          <type>
            <text value="qualifier"/>
          </type>
          <classifier>
            <text value="is not a major topic"/>
          </classifier>
        </component>
      </content>
      <content>
        <type>
          <coding>
            <system value="http://terminology.hl7.org/CodeSystem/cited-artifact-classification-type"/>
            <code value="mesh-heading"/>
            <display value="MeSH heading"/>
          </coding>
          <text value="components (if present) include qualifier codings"/>
        </type>
        <classifier>
          <coding>
            <system value="https://meshb.nlm.nih.gov/"/>
            <code value="D011482"/>
            <display value="Protective Devices"/>
            <userSelected value="false"/>
          </coding>
        </classifier>
        <freeToShare value="true"/>
        <component>
          <type>
            <text value="qualifier"/>
          </type>
          <classifier>
            <text value="is Major topic"/>
          </classifier>
        </component>
      </content>
      <content>
        <type>
          <coding>
            <system value="http://terminology.hl7.org/CodeSystem/cited-artifact-classification-type"/>
            <code value="mesh-heading"/>
            <display value="MeSH heading"/>
          </coding>
          <text value="components (if present) include qualifier codings"/>
        </type>
        <classifier>
          <coding>
            <system value="https://meshb.nlm.nih.gov/"/>
            <code value="D014925"/>
            <display value="Wit and Humor as Topic"/>
            <userSelected value="false"/>
          </coding>
        </classifier>
        <freeToShare value="true"/>
        <component>
          <type>
            <text value="qualifier"/>
          </type>
          <classifier>
            <text value="is not a major topic"/>
          </classifier>
        </component>
      </content>
      <content>
        <type>
          <coding>
            <system value="http://terminology.hl7.org/CodeSystem/cited-artifact-classification-type"/>
            <code value="mesh-heading"/>
            <display value="MeSH heading"/>
          </coding>
          <text value="components (if present) include qualifier codings"/>
        </type>
        <classifier>
          <coding>
            <system value="https://meshb.nlm.nih.gov/"/>
            <code value="D014947"/>
            <display value="Wounds and Injuries"/>
            <userSelected value="false"/>
          </coding>
        </classifier>
        <freeToShare value="true"/>
        <component>
          <type>
            <text value="qualifier"/>
          </type>
          <classifier>
            <text value="is not a major topic"/>
          </classifier>
        </component>
        <component>
          <type>
            <text value="qualifier"/>
          </type>
          <classifier>
            <coding>
              <system value="https://meshb.nlm.nih.gov/"/>
              <code value="Q000517"/>
              <display value="prevention &amp; control"/>
            </coding>
          </classifier>
          <component>
            <type>
              <text value="is Major topic"/>
            </type>
            <classifier>
              <coding>
                <code value="Y"/>
              </coding>
            </classifier>
          </component>
        </component>
      </content>
    </ArtifactAssessment>
  </contained>
  <url value="http://hl7.org/fhir/Citation/example-for-parachute-rct"/>
  <identifier>
    <type>
      <text value="FEvIR Object Identifier"/>
    </type>
    <system value="urn:ietf:rfc:3986"/>
    <value value="https://fevir.net/FOI/306957"/>
    <assigner>
      <display value="Computable Publishing LLC"/>
    </assigner>
  </identifier>
  <identifier>
    <system value="https://pubmed.ncbi.nlm.nih.gov"/>
    <value value="30545967"/>
  </identifier>
  <title value="30545967 Parachute use to prevent death and major trauma when jumping from aircraft: randomized controlled trial."/>
  <status value="active"/>
  <author>
    <name value="Computable Publishing®: MEDLINE-to-FEvIR Converter"/>
  </author>
  <publisher value="Computable Publishing LLC"/>
  <contact>
    <telecom>
      <system value="email"/>
      <value value="support@computablepublishing.com"/>
    </telecom>
  </contact>
  <useContext>
    <code>
      <system value="http://terminology.hl7.org/CodeSystem/citation-classification-type"/>
      <code value="fevir-platform-use"/>
      <display value="FEvIR Platform Use"/>
    </code>
    <valueCodeableConcept>
      <coding>
        <system value="http://terminology.hl7.org/CodeSystem/citation-artifact-classifier"/>
        <code value="medline-base"/>
        <display value="Medline Base"/>
        <userSelected value="false"/>
      </coding>
    </valueCodeableConcept>
  </useContext>
  <copyright value="https://creativecommons.org/licenses/by-nc-sa/4.0/"/>
  <approvalDate value="2019-04-09"/>
  <lastReviewDate value="2020-02-25"/>
  <classification>
    <type>
      <coding>
        <system value="http://terminology.hl7.org/CodeSystem/citation-classification-type"/>
        <code value="citation-source"/>
        <display value="Citation Source"/>
      </coding>
    </type>
    <classifier>
      <text value="MEDLINE"/>
    </classifier>
  </classification>
  <classification>
    <type>
      <coding>
        <system value="http://terminology.hl7.org/CodeSystem/citation-classification-type"/>
        <code value="medline-owner"/>
        <display value="MEDLINE Citation Owner"/>
      </coding>
    </type>
    <classifier>
      <coding>
        <system value="https://www.nlm.nih.gov/bsd/licensee/elements_descriptions.html#owner_value"/>
        <code value="NLM"/>
        <display value="National Library of Medicine, Index Section"/>
        <userSelected value="false"/>
      </coding>
    </classifier>
  </classification>
  <currentState>
    <coding>
      <system value="http://hl7.org/fhir/citation-status-type"/>
      <code value="medline-medline"/>
      <display value="Medline Citation Status of Medline"/>
    </coding>
  </currentState>
  <currentState>
    <coding>
      <system value="http://hl7.org/fhir/citation-status-type"/>
      <code value="pubmed-publication-status-epublish"/>
      <display value="PubMed PublicationStatus of epublish"/>
    </coding>
  </currentState>
  <statusDate>
    <activity>
      <coding>
        <system value="http://hl7.org/fhir/citation-status-type"/>
        <code value="pubmed-pubstatus-entrez"/>
        <display value="PubMed Pubstatus of Entrez"/>
      </coding>
    </activity>
    <period>
      <end value="2018-12-15T06:00:00.000Z"/>
    </period>
  </statusDate>
  <statusDate>
    <activity>
      <coding>
        <system value="http://hl7.org/fhir/citation-status-type"/>
        <code value="pubmed-pubstatus-pubmed"/>
        <display value="PubMed Pubstatus of Pubmed"/>
      </coding>
    </activity>
    <period>
      <end value="2018-12-14T06:00:00.000Z"/>
    </period>
  </statusDate>
  <statusDate>
    <activity>
      <coding>
        <system value="http://hl7.org/fhir/citation-status-type"/>
        <code value="pubmed-pubstatus-medline"/>
        <display value="PubMed Pubstatus of Medline"/>
      </coding>
    </activity>
    <period>
      <end value="2019-04-10T06:00:00.000Z"/>
    </period>
  </statusDate>
  <statusDate>
    <activity>
      <coding>
        <system value="http://hl7.org/fhir/citation-status-type"/>
        <code value="pubmed-pubstatus-pmc-release"/>
        <display value="PubMed Pubstatus of PMC release"/>
      </coding>
    </activity>
    <period>
      <end value="2018-01-01"/>
    </period>
  </statusDate>
  <citedArtifact>
    <identifier>
      <system value="https://pubmed.ncbi.nlm.nih.gov"/>
      <value value="30545967"/>
    </identifier>
    <identifier>
      <system value="https://www.ncbi.nlm.nih.gov/pmc/"/>
      <value value="PMC6298200"/>
    </identifier>
    <identifier>
      <system value="https://doi.org"/>
      <value value="10.1136/bmj.k5094"/>
    </identifier>
    <title>
      <type>
        <coding>
          <system value="http://terminology.hl7.org/CodeSystem/title-type"/>
          <code value="primary"/>
          <display value="Primary title"/>
        </coding>
      </type>
			<language value="en"/>
      <text value="PARACHUTE Trial Citation Parachute use to prevent death and major trauma when jumping from aircraft: randomized controlled trial."/>
    </title>
    <abstract>
      <text value="&lt;AbstractText Label=&quot;OBJECTIVE&quot; NlmCategory=&quot;OBJECTIVE&quot;&gt;To determine if using a parachute prevents death or major traumatic injury when jumping from an aircraft.&lt;/AbstractText&gt;&lt;AbstractText Label=&quot;DESIGN&quot; NlmCategory=&quot;METHODS&quot;&gt;Randomized controlled trial.&lt;/AbstractText&gt;&lt;AbstractText Label=&quot;SETTING&quot; NlmCategory=&quot;METHODS&quot;&gt;Private or commercial aircraft between September 2017 and August 2018.&lt;/AbstractText&gt;&lt;AbstractText Label=&quot;PARTICIPANTS&quot; NlmCategory=&quot;METHODS&quot;&gt;92 aircraft passengers aged 18 and over were screened for participation. 23 agreed to be enrolled and were randomized.&lt;/AbstractText&gt;&lt;AbstractText Label=&quot;INTERVENTION&quot; NlmCategory=&quot;METHODS&quot;&gt;Jumping from an aircraft (airplane or helicopter) with a parachute versus an empty backpack (unblinded).&lt;/AbstractText&gt;&lt;AbstractText Label=&quot;MAIN OUTCOME MEASURES&quot; NlmCategory=&quot;METHODS&quot;&gt;Composite of death or major traumatic injury (defined by an Injury Severity Score over 15) upon impact with the ground measured immediately after landing.&lt;/AbstractText&gt;&lt;AbstractText Label=&quot;RESULTS&quot; NlmCategory=&quot;RESULTS&quot;&gt;Parachute use did not significantly reduce death or major injury (0% for parachute &lt;i&gt;v&lt;/i&gt; 0% for control; P&gt;0.9). This finding was consistent across multiple subgroups. Compared with individuals screened but not enrolled, participants included in the study were on aircraft at significantly lower altitude (mean of 0.6 m for participants &lt;i&gt;v&lt;/i&gt; mean of 9146 m for non-participants; P&lt;0.001) and lower velocity (mean of 0 km/h &lt;i&gt;v&lt;/i&gt; mean of 800 km/h; P&lt;0.001).&lt;/AbstractText&gt;&lt;AbstractText Label=&quot;CONCLUSIONS&quot; NlmCategory=&quot;CONCLUSIONS&quot;&gt;Parachute use did not reduce death or major traumatic injury when jumping from aircraft in the first randomized evaluation of this intervention. However, the trial was only able to enroll participants on small stationary aircraft on the ground, suggesting cautious extrapolation to high altitude jumps. When beliefs regarding the effectiveness of an intervention exist in the community, randomized trials might selectively enroll individuals with a lower perceived likelihood of benefit, thus diminishing the applicability of the results to clinical practice.&lt;/AbstractText&gt;"/>
      <copyright value="Published by the BMJ Publishing Group Limited. For permission to use (where not already granted under a licence) please go to http://group.bmj.com/group/rights-licensing/permissions."/>
    </abstract>
    <relatesTo>
      <type>
        <coding>
          <system value="http://terminology.hl7.org/CodeSystem/artifact-relationship-type" />
          <code value="cites" />
          <display value="Cites" />
        </coding>
      </type>
      <classifier>
        <coding>
          <system value="http://terminology.hl7.org/CodeSystem/citation-artifact-classifier"/>
          <code value="D016428"/>
          <display value="Journal Article"/>
        </coding>
      </classifier>
      <citation value="Smith GC, Pell JP. Parachute use to prevent death and major trauma related to gravitational challenge: systematic review of randomised controlled trials. BMJ 2003;327:1459-61. 10.1136/bmj.327.7429.1459 "/>
      <document>
        <url value="https://pubmed.ncbi.nlm.nih.gov/14684649/"/>
      </document>
      <resourceReference>
        <identifier>
          <system value="https://pubmed.ncbi.nlm.nih.gov"/>
          <value value="14684649"/>
          <assigner>
            <display value="NLM"/>
          </assigner>
        </identifier>
      </resourceReference>
    </relatesTo>
    <relatesTo>
      <type>
        <coding>
          <system value="http://terminology.hl7.org/CodeSystem/artifact-relationship-type" />
          <code value="cites" />
          <display value="Cites" />
        </coding>
      </type>
      <citation value="United States Parachute Association. Skydiver's Information Manual, 2018. https://uspa.org/Portals/0/files/Man_SIM_2018.pdf"/>
    </relatesTo>
    <relatesTo>
      <type>
        <coding>
          <system value="http://terminology.hl7.org/CodeSystem/artifact-relationship-type" />
          <code value="cites" />
          <display value="Cites" />
        </coding>
      </type>
      <classifier>
        <coding>
          <system value="http://terminology.hl7.org/CodeSystem/citation-artifact-classifier"/>
          <code value="D016428"/>
          <display value="Journal Article"/>
        </coding>
      </classifier>
      <citation value="Knapik J, Steelman R. Risk factors for injuries during military static-line airborne operations: a systematic review and meta-analysis. J Athl Train 2016;51:962-80. 10.4085/1062-6050-51.9.10 "/>
      <document>
        <url value="https://pubmed.ncbi.nlm.nih.gov/28068166/"/>
      </document>
      <resourceReference>
        <identifier>
          <system value="https://pubmed.ncbi.nlm.nih.gov"/>
          <value value="28068166"/>
          <assigner>
            <display value="NLM"/>
          </assigner>
        </identifier>
      </resourceReference>
    </relatesTo>
    <relatesTo>
      <type>
        <coding>
          <system value="http://terminology.hl7.org/CodeSystem/artifact-relationship-type" />
          <code value="cites" />
          <display value="Cites" />
        </coding>
      </type>
      <classifier>
        <coding>
          <system value="http://terminology.hl7.org/CodeSystem/citation-artifact-classifier"/>
          <code value="D016428"/>
          <display value="Journal Article"/>
        </coding>
      </classifier>
      <citation value="Ellitsgaard N. Parachuting injuries: a study of 110,000 sports jumps. Br J Sports Med 1987;21:13-7. 10.1136/bjsm.21.1.13 "/>
      <document>
        <url value="https://pubmed.ncbi.nlm.nih.gov/3580720/"/>
      </document>
      <resourceReference>
        <identifier>
          <system value="https://pubmed.ncbi.nlm.nih.gov"/>
          <value value="3580720"/>
          <assigner>
            <display value="NLM"/>
          </assigner>
        </identifier>
      </resourceReference>
    </relatesTo>
    <relatesTo>
      <type>
        <coding>
          <system value="http://terminology.hl7.org/CodeSystem/artifact-relationship-type" />
          <code value="cites" />
          <display value="Cites" />
        </coding>
      </type>
      <citation value="ICD-10-CM Code V97.2. Parachutist Accident. https://icd.codes/icd10cm/V972"/>
    </relatesTo>
    <relatesTo>
      <type>
        <coding>
          <system value="http://terminology.hl7.org/CodeSystem/artifact-relationship-type" />
          <code value="cites" />
          <display value="Cites" />
        </coding>
      </type>
      <classifier>
        <coding>
          <system value="http://terminology.hl7.org/CodeSystem/citation-artifact-classifier"/>
          <code value="D016428"/>
          <display value="Journal Article"/>
        </coding>
      </classifier>
      <citation value="Echt DS, Liebson PR, Mitchell LB, et al. Mortality and morbidity in patients receiving encainide, flecainide, or placebo. The Cardiac Arrhythmia Suppression Trial. N Engl J Med 1991;324:781-8. 10.1056/NEJM199103213241201 "/>
      <document>
        <url value="https://pubmed.ncbi.nlm.nih.gov/1900101/"/>
      </document>
      <resourceReference>
        <identifier>
          <system value="https://pubmed.ncbi.nlm.nih.gov"/>
          <value value="1900101"/>
          <assigner>
            <display value="NLM"/>
          </assigner>
        </identifier>
      </resourceReference>
    </relatesTo>
    <relatesTo>
      <type>
        <coding>
          <system value="http://terminology.hl7.org/CodeSystem/artifact-relationship-type" />
          <code value="cites" />
          <display value="Cites" />
        </coding>
      </type>
      <classifier>
        <coding>
          <system value="http://terminology.hl7.org/CodeSystem/citation-artifact-classifier"/>
          <code value="D016428"/>
          <display value="Journal Article"/>
        </coding>
      </classifier>
      <citation value="Rossouw JE, Anderson GL, Prentice RL, et al. Writing Group for the Women’s Health Initiative Investigators Risks and benefits of estrogen plus progestin in healthy postmenopausal women: principal results From the Women’s Health Initiative randomized controlled trial. JAMA 2002;288:321-33. 10.1001/jama.288.3.321 "/>
      <document>
        <url value="https://pubmed.ncbi.nlm.nih.gov/12117397/"/>
      </document>
      <resourceReference>
        <identifier>
          <system value="https://pubmed.ncbi.nlm.nih.gov"/>
          <value value="12117397"/>
          <assigner>
            <display value="NLM"/>
          </assigner>
        </identifier>
      </resourceReference>
    </relatesTo>
    <relatesTo>
      <type>
        <coding>
          <system value="http://terminology.hl7.org/CodeSystem/artifact-relationship-type" />
          <code value="cites" />
          <display value="Cites" />
        </coding>
      </type>
      <citation value="QuickTapSurvey [program]: TabbleDabble Inc., Toronto, Canada. https://www.quicktapsurvey.com"/>
    </relatesTo>
    <relatesTo>
      <type>
        <coding>
          <system value="http://terminology.hl7.org/CodeSystem/artifact-relationship-type" />
          <code value="cites" />
          <display value="Cites" />
        </coding>
      </type>
      <classifier>
        <coding>
          <system value="http://terminology.hl7.org/CodeSystem/citation-artifact-classifier"/>
          <code value="D016428"/>
          <display value="Journal Article"/>
        </coding>
      </classifier>
      <citation value="Baker SP, O’Neill B, Haddon W, Jr, Long WB. The injury severity score: a method for describing patients with multiple injuries and evaluating emergency care. J Trauma 1974;14:187-96. 10.1097/00005373-197403000-00001 "/>
      <document>
        <url value="https://pubmed.ncbi.nlm.nih.gov/4814394/"/>
      </document>
      <resourceReference>
        <identifier>
          <system value="https://pubmed.ncbi.nlm.nih.gov"/>
          <value value="4814394"/>
          <assigner>
            <display value="NLM"/>
          </assigner>
        </identifier>
      </resourceReference>
    </relatesTo>
    <relatesTo>
      <type>
        <coding>
          <system value="http://terminology.hl7.org/CodeSystem/artifact-relationship-type" />
          <code value="cites" />
          <display value="Cites" />
        </coding>
      </type>
      <classifier>
        <coding>
          <system value="http://terminology.hl7.org/CodeSystem/citation-artifact-classifier"/>
          <code value="D016428"/>
          <display value="Journal Article"/>
        </coding>
      </classifier>
      <citation value="Ware J, Jr, Kosinski M, Keller SD. A 12-Item Short-Form Health Survey: construction of scales and preliminary tests of reliability and validity. Med Care 1996;34:220-33. 10.1097/00005650-199603000-00003 "/>
      <document>
        <url value="https://pubmed.ncbi.nlm.nih.gov/8628042/"/>
      </document>
      <resourceReference>
        <identifier>
          <system value="https://pubmed.ncbi.nlm.nih.gov"/>
          <value value="8628042"/>
          <assigner>
            <display value="NLM"/>
          </assigner>
        </identifier>
      </resourceReference>
    </relatesTo>
    <relatesTo>
      <type>
        <coding>
          <system value="http://terminology.hl7.org/CodeSystem/artifact-relationship-type" />
          <code value="cites" />
          <display value="Cites" />
        </coding>
      </type>
      <classifier>
        <coding>
          <system value="http://terminology.hl7.org/CodeSystem/citation-artifact-classifier"/>
          <code value="D016428"/>
          <display value="Journal Article"/>
        </coding>
      </classifier>
      <citation value="Schwartz AL, Landon BE, Elshaug AG, Chernew ME, McWilliams JM. Measuring low-value care in Medicare. JAMA Intern Med 2014;174:1067-76. 10.1001/jamainternmed.2014.1541 "/>
      <document>
        <url value="https://pubmed.ncbi.nlm.nih.gov/24819824/"/>
      </document>
      <resourceReference>
        <identifier>
          <system value="https://pubmed.ncbi.nlm.nih.gov"/>
          <value value="24819824"/>
          <assigner>
            <display value="NLM"/>
          </assigner>
        </identifier>
      </resourceReference>
    </relatesTo>
    <relatesTo>
      <type>
        <coding>
          <system value="http://terminology.hl7.org/CodeSystem/artifact-relationship-type" />
          <code value="cites" />
          <display value="Cites" />
        </coding>
      </type>
      <classifier>
        <coding>
          <system value="http://terminology.hl7.org/CodeSystem/citation-artifact-classifier"/>
          <code value="D016428"/>
          <display value="Journal Article"/>
        </coding>
      </classifier>
      <citation value="Kunz R, Oxman AD. The unpredictability paradox: review of empirical comparisons of randomised and non--randomised clinical trials. BMJ 1998;317:1185-90. 10.1136/bmj.317.7167.1185 "/>
      <document>
        <url value="https://pubmed.ncbi.nlm.nih.gov/9794851/"/>
      </document>
      <resourceReference>
        <identifier>
          <system value="https://pubmed.ncbi.nlm.nih.gov"/>
          <value value="9794851"/>
          <assigner>
            <display value="NLM"/>
          </assigner>
        </identifier>
      </resourceReference>
    </relatesTo>
    <relatesTo>
      <type>
        <coding>
          <system value="http://terminology.hl7.org/CodeSystem/artifact-relationship-type" />
          <code value="cites" />
          <display value="Cites" />
        </coding>
      </type>
      <classifier>
        <coding>
          <system value="http://terminology.hl7.org/CodeSystem/citation-artifact-classifier"/>
          <code value="D016428"/>
          <display value="Journal Article"/>
        </coding>
      </classifier>
      <citation value="Nallamothu BK, Hayward RA, Bates ER. Beyond the randomized clinical trial: the role of effectiveness studies in evaluating cardiovascular therapies. Circulation 2008;118:1294-303. 10.1161/CIRCULATIONAHA.107.703579 "/>
      <document>
        <url value="https://pubmed.ncbi.nlm.nih.gov/18794402/"/>
      </document>
      <resourceReference>
        <identifier>
          <system value="https://pubmed.ncbi.nlm.nih.gov"/>
          <value value="18794402"/>
          <assigner>
            <display value="NLM"/>
          </assigner>
        </identifier>
      </resourceReference>
    </relatesTo>
    <relatesTo>
      <type>
        <coding>
          <system value="http://terminology.hl7.org/CodeSystem/artifact-relationship-type" />
          <code value="cites" />
          <display value="Cites" />
        </coding>
      </type>
      <classifier>
        <coding>
          <system value="http://terminology.hl7.org/CodeSystem/citation-artifact-classifier"/>
          <code value="D016428"/>
          <display value="Journal Article"/>
        </coding>
      </classifier>
      <citation value="Kennedy-Martin T, Curtis S, Faries D, Robinson S, Johnston J. A literature review on the representativeness of randomized controlled trial samples and implications for the external validity of trial results. Trials 2015;16:495. 10.1186/s13063-015-1023-4 "/>
      <document>
        <url value="https://pubmed.ncbi.nlm.nih.gov/26530985/"/>
      </document>
      <resourceReference>
        <identifier>
          <system value="https://pubmed.ncbi.nlm.nih.gov"/>
          <value value="26530985"/>
          <assigner>
            <display value="NLM"/>
          </assigner>
        </identifier>
      </resourceReference>
    </relatesTo>
    <relatesTo>
      <type>
        <coding>
          <system value="http://terminology.hl7.org/CodeSystem/artifact-relationship-type" />
          <code value="cites" />
          <display value="Cites" />
        </coding>
      </type>
      <classifier>
        <coding>
          <system value="http://terminology.hl7.org/CodeSystem/citation-artifact-classifier"/>
          <code value="D016428"/>
          <display value="Journal Article"/>
        </coding>
      </classifier>
      <citation value="Hayes MJ, Kaestner V, Mailankody S, Prasad V. Most medical practices are not parachutes: a citation analysis of practices felt by biomedical authors to be analogous to parachutes. CMAJ Open 2018;6:E31-8. 10.9778/cmajo.20170088 "/>
      <document>
        <url value="https://pubmed.ncbi.nlm.nih.gov/29343497/"/>
      </document>
      <resourceReference>
        <identifier>
          <system value="https://pubmed.ncbi.nlm.nih.gov"/>
          <value value="29343497"/>
          <assigner>
            <display value="NLM"/>
          </assigner>
        </identifier>
      </resourceReference>
    </relatesTo>
    <relatesTo>
      <type>
        <coding>
          <system value="http://terminology.hl7.org/CodeSystem/artifact-relationship-type" />
          <code value="cites" />
          <display value="Cites" />
        </coding>
      </type>
      <citation value="Newton SI. Law of Universal Gravitation. Philosophiæ Naturalis Principia Mathematica, 1687."/>
    </relatesTo>
    <relatesTo>
      <type>
        <coding>
          <system value="http://terminology.hl7.org/CodeSystem/artifact-relationship-type" />
          <code value="cites" />
          <display value="Cites" />
        </coding>
      </type>
      <classifier>
        <coding>
          <system value="http://terminology.hl7.org/CodeSystem/citation-artifact-classifier"/>
          <code value="D016428"/>
          <display value="Journal Article"/>
        </coding>
      </classifier>
      <citation value="Al-Lamee R, Thompson D, Dehbi H-M, et al. ORBITA investigators Percutaneous coronary intervention in stable angina (ORBITA): a double-blind, randomised controlled trial. Lancet 2018;391:31-40. 10.1016/S0140-6736(17)32714-9 "/>
      <document>
        <url value="https://pubmed.ncbi.nlm.nih.gov/29103656/"/>
      </document>
      <resourceReference>
        <identifier>
          <system value="https://pubmed.ncbi.nlm.nih.gov"/>
          <value value="29103656"/>
          <assigner>
            <display value="NLM"/>
          </assigner>
        </identifier>
      </resourceReference>
    </relatesTo>
    <relatesTo>
      <type>
        <coding>
          <system value="http://terminology.hl7.org/CodeSystem/artifact-relationship-type" />
          <code value="correction-in" />
          <display value="Correction In" />
        </coding>
      </type>
      <classifier>
        <coding>
          <system value="https://meshb.nlm.nih.gov/"/>
          <code value="D016425"/>
          <display value="Published Erratum"/>
          <userSelected value="false"/>
        </coding>
      </classifier>
      <citation value="BMJ. 2018 Dec 18;363:k5343. doi: 10.1136/bmj.k5343"/>
      <document>
        <url value="https://pubmed.ncbi.nlm.nih.gov/30563831/"/>
      </document>
      <resourceReference>
        <identifier>
          <system value="https://pubmed.ncbi.nlm.nih.gov"/>
          <value value="30563831"/>
          <assigner>
            <display value="NLM"/>
          </assigner>
        </identifier>
      </resourceReference>
    </relatesTo>
    <relatesTo>
      <type>
        <coding>
          <system value="http://terminology.hl7.org/CodeSystem/artifact-relationship-type" />
          <code value="comment-in" />
          <display value="Has Comment In" />
        </coding>
      </type>
      <classifier>
        <coding>
          <system value="https://meshb.nlm.nih.gov/"/>
          <code value="D016420"/>
          <display value="Comment"/>
          <userSelected value="false"/>
        </coding>
      </classifier>
      <citation value="Catheter Cardiovasc Interv. 2019 Apr 1;93(5):944-945. doi: 10.1002/ccd.28151"/>
      <document>
        <url value="https://pubmed.ncbi.nlm.nih.gov/30762932/"/>
      </document>
      <resourceReference>
        <identifier>
          <system value="https://pubmed.ncbi.nlm.nih.gov"/>
          <value value="30762932"/>
          <assigner>
            <display value="NLM"/>
          </assigner>
        </identifier>
      </resourceReference>
    </relatesTo>
    <relatesTo>
      <type>
        <coding>
          <system value="http://terminology.hl7.org/CodeSystem/artifact-relationship-type" />
          <code value="comment-in" />
          <display value="Has Comment In" />
        </coding>
      </type>
      <classifier>
        <coding>
          <system value="https://meshb.nlm.nih.gov/"/>
          <code value="D016420"/>
          <display value="Comment"/>
          <userSelected value="false"/>
        </coding>
      </classifier>
      <citation value="MMW Fortschr Med. 2019 Feb;161(3):26. doi: 10.1007/s15006-019-0173-9"/>
      <document>
        <url value="https://pubmed.ncbi.nlm.nih.gov/30778977/"/>
      </document>
      <resourceReference>
        <identifier>
          <system value="https://pubmed.ncbi.nlm.nih.gov"/>
          <value value="30778977"/>
          <assigner>
            <display value="NLM"/>
          </assigner>
        </identifier>
      </resourceReference>
    </relatesTo>
    <publicationForm>
      <publishedIn>
        <type>
          <coding>
            <system value="http://terminology.hl7.org/CodeSystem/published-in-type"/>
            <code value="D020492"/>
            <display value="Periodical"/>
          </coding>
        </type>
        <identifier>
          <type>
            <coding>
              <system value="https://www.nlm.nih.gov/bsd/licensee/elements_descriptions.html#issn"/>
              <code value="Electronic"/>
              <display value="Electronic"/>
            </coding>
            <text value="Electronic ISSN Type"/>
          </type>
          <system value="https://portal.issn.org"/>
          <value value="1756-1833"/>
        </identifier>
        <identifier>
          <type>
            <text value="ISOAbbreviation"/>
          </type>
          <system value="https://www.issn.org/services/online-services/access-to-the-ltwa/"/>
          <value value="BMJ"/>
        </identifier>
        <identifier>
          <type>
            <text value="ISSN Linking"/>
          </type>
          <system value="https://www.issn.org/understanding-the-issn/assignment-rules/the-issn-l-for-publications-on-multiple-media/"/>
          <value value="0959-8138"/>
        </identifier>
        <identifier>
          <type>
            <text value="Medline Title Abbreviation"/>
          </type>
          <system value="https://www.nlm.nih.gov/tsd/cataloging/contructitleabbre.html"/>
          <value value="BMJ"/>
        </identifier>
        <identifier>
          <type>
            <text value="NLM Unique ID"/>
          </type>
          <system value="https://locatorplus.gov/cgi-bin/Pwebrecon.cgi?DB=local"/>
          <value value="8900488"/>
        </identifier>
        <title value="BMJ (Clinical research ed.)"/>
        <publisherLocation value="England"/>
      </publishedIn>
      <citedMedium>
        <coding>
          <system value="http://terminology.hl7.org/CodeSystem/cited-medium"/>
          <code value="internet"/>
          <display value="Internet"/>
        </coding>
      </citedMedium>
      <volume value="363"/>
      <articleDate value="2018-12-13"/>
      <pageString value="k5094"/>
    </publicationForm>
    <publicationForm>
      <citedMedium>
        <coding>
          <system value="http://terminology.hl7.org/CodeSystem/cited-medium"/>
          <code value="internet-without-issue"/>
          <display value="Internet without issue"/>
        </coding>
      </citedMedium>
      <articleDate value="2018-12-13"/>
    </publicationForm>
    <webLocation>
      <classifier>
        <coding>
          <system value="http://terminology.hl7.org/CodeSystem/artifact-url-classifier"/>
          <code value="abstract"/>
          <display value="Abstract"/>
        </coding>
      </classifier>
      <url value="https://pubmed.ncbi.nlm.nih.gov/30545967/"/>
    </webLocation>
    <webLocation>
      <classifier>
        <coding>
          <system value="http://terminology.hl7.org/CodeSystem/artifact-url-classifier"/>
          <code value="doi-based"/>
          <display value="DOI Based"/>
        </coding>
      </classifier>
      <url value="https://doi.org/10.1136/bmj.k5094"/>
    </webLocation>
    <classification>
      <type>
        <coding>
          <system value="http://terminology.hl7.org/CodeSystem/cited-artifact-classification-type"/>
          <code value="publishing-model"/>
          <display value="Publishing Model"/>
          <userSelected value="false"/>
        </coding>
      </type>
      <classifier>
        <coding>
          <system value="http://terminology.hl7.org/CodeSystem/citation-artifact-classifier"/>
          <code value="Electronic"/>
          <display value="Electronic"/>
          <userSelected value="false"/>
        </coding>
      </classifier>
    </classification>
    <classification>
      <type>
        <coding>
          <system value="http://terminology.hl7.org/CodeSystem/cited-artifact-classification-type"/>
          <code value="mesh-heading"/>
          <display value="MeSH heading"/>
        </coding>
      </type>
      <artifactAssessment>
        <reference value="#meshHeading0"/>
        <type value="ArtifactAssessment"/>
      </artifactAssessment>
    </classification>
    <classification>
      <type>
        <coding>
          <system value="http://terminology.hl7.org/CodeSystem/cited-artifact-classification-type"/>
          <code value="publication-type"/>
          <display value="Publication type"/>
        </coding>
      </type>
      <classifier>
        <coding>
          <system value="https://meshb.nlm.nih.gov/"/>
          <code value="D016428"/>
          <display value="Journal Article"/>
          <userSelected value="false"/>
        </coding>
      </classifier>
      <classifier>
        <coding>
          <system value="https://meshb.nlm.nih.gov/"/>
          <code value="D016449"/>
          <display value="Randomized Controlled Trial"/>
          <userSelected value="false"/>
        </coding>
      </classifier>
    </classification>
    <classification>
      <type>
        <coding>
          <system value="http://terminology.hl7.org/CodeSystem/cited-artifact-classification-type"/>
          <code value="knowledge-artifact-type"/>
          <display value="Knowledge Artifact Type"/>
          <userSelected value="false"/>
        </coding>
      </type>
      <classifier>
        <coding>
          <system value="http://terminology.hl7.org/CodeSystem/citation-artifact-classifier"/>
          <code value="D016428"/>
          <display value="Journal Article"/>
          <userSelected value="false"/>
        </coding>
      </classifier>
      <artifactAssessment>
        <display value="Classifier added by Computable Publishing LLC"/>
      </artifactAssessment>
    </classification>
    <classification>
      <type>
        <coding>
          <system value="http://terminology.hl7.org/CodeSystem/cited-artifact-classification-type"/>
          <code value="citation-subset"/>
          <display value="Citation subset"/>
          <userSelected value="false"/>
        </coding>
      </type>
      <classifier>
        <coding>
          <system value="https://www.nlm.nih.gov/bsd/licensee/elements_descriptions.html#citationsubset"/>
          <code value="IM"/>
          <display value="IM"/>
          <userSelected value="false"/>
        </coding>
      </classifier>
    </classification>
    <contributorship>
      <complete value="true"/>
      <entry>
        <contributor>
          <reference value="#contributor0"/>
          <type value="Practitioner"/>
          <display value="Yeh RW"/>
        </contributor>
        <forenameInitials value="RW"/>
        <affiliation>
          <display value="Richard A and Susan F Smith Center for Outcomes Research in Cardiology, Beth Israel Deaconess Medical Center, Harvard Medical School, 375 Longwood Avenue, Boston, MA 02215, USA ryeh@bidmc.harvard.edu."/>
        </affiliation>
      </entry>
      <entry>
        <contributor>
          <reference value="#contributor1"/>
          <type value="Practitioner"/>
          <display value="Valsdottir LR"/>
        </contributor>
        <forenameInitials value="LR"/>
        <affiliation>
          <display value="Richard A and Susan F Smith Center for Outcomes Research in Cardiology, Beth Israel Deaconess Medical Center, Harvard Medical School, 375 Longwood Avenue, Boston, MA 02215, USA."/>
        </affiliation>
      </entry>
      <entry>
        <contributor>
          <reference value="#contributor2"/>
          <type value="Practitioner"/>
          <display value="Yeh MW"/>
        </contributor>
        <forenameInitials value="MW"/>
        <affiliation>
          <display value="David Geffen School of Medicine, University of California, Los Angeles, CA, USA ryeh@bidmc.harvard.edu."/>
        </affiliation>
      </entry>
      <entry>
        <contributor>
          <reference value="#contributor3"/>
          <type value="Practitioner"/>
          <display value="Shen C"/>
        </contributor>
        <forenameInitials value="C"/>
        <affiliation>
          <display value="Richard A and Susan F Smith Center for Outcomes Research in Cardiology, Beth Israel Deaconess Medical Center, Harvard Medical School, 375 Longwood Avenue, Boston, MA 02215, USA."/>
        </affiliation>
      </entry>
      <entry>
        <contributor>
          <reference value="#contributor4"/>
          <type value="Practitioner"/>
          <display value="Kramer DB"/>
        </contributor>
        <forenameInitials value="DB"/>
        <affiliation>
          <display value="Richard A and Susan F Smith Center for Outcomes Research in Cardiology, Beth Israel Deaconess Medical Center, Harvard Medical School, 375 Longwood Avenue, Boston, MA 02215, USA."/>
        </affiliation>
      </entry>
      <entry>
        <contributor>
          <reference value="#contributor5"/>
          <type value="Practitioner"/>
          <display value="Strom JB"/>
        </contributor>
        <forenameInitials value="JB"/>
        <affiliation>
          <display value="Richard A and Susan F Smith Center for Outcomes Research in Cardiology, Beth Israel Deaconess Medical Center, Harvard Medical School, 375 Longwood Avenue, Boston, MA 02215, USA."/>
        </affiliation>
      </entry>
      <entry>
        <contributor>
          <reference value="#contributor6"/>
          <type value="Practitioner"/>
          <display value="Secemsky EA"/>
        </contributor>
        <forenameInitials value="EA"/>
        <affiliation>
          <display value="Richard A and Susan F Smith Center for Outcomes Research in Cardiology, Beth Israel Deaconess Medical Center, Harvard Medical School, 375 Longwood Avenue, Boston, MA 02215, USA."/>
        </affiliation>
      </entry>
      <entry>
        <contributor>
          <reference value="#contributor7"/>
          <type value="Practitioner"/>
          <display value="Healy JL"/>
        </contributor>
        <forenameInitials value="JL"/>
        <affiliation>
          <display value="Richard A and Susan F Smith Center for Outcomes Research in Cardiology, Beth Israel Deaconess Medical Center, Harvard Medical School, 375 Longwood Avenue, Boston, MA 02215, USA."/>
        </affiliation>
      </entry>
      <entry>
        <contributor>
          <reference value="#contributor8"/>
          <type value="Practitioner"/>
          <display value="Domeier RM"/>
        </contributor>
        <forenameInitials value="RM"/>
        <affiliation>
          <display value="Department of Emergency Medicine, University of Michigan and Saint Joseph Hospital, Ann Arbor, MI, USA."/>
        </affiliation>
      </entry>
      <entry>
        <contributor>
          <reference value="#contributor9"/>
          <type value="Practitioner"/>
          <display value="Kazi DS"/>
        </contributor>
        <forenameInitials value="DS"/>
        <affiliation>
          <display value="Richard A and Susan F Smith Center for Outcomes Research in Cardiology, Beth Israel Deaconess Medical Center, Harvard Medical School, 375 Longwood Avenue, Boston, MA 02215, USA."/>
        </affiliation>
      </entry>
      <entry>
        <contributor>
          <reference value="#contributor10"/>
          <type value="Practitioner"/>
          <display value="Nallamothu BK"/>
        </contributor>
        <forenameInitials value="BK"/>
        <affiliation>
          <display value="Michigan Integrated Center for Health Analytics and Medical Prediction, Department of Internal Medicine and Institute for Healthcare Policy and Innovation, University of Michigan, Ann Arbor, MI, USA."/>
        </affiliation>
      </entry>
      <entry>
        <contributor>
          <reference value="#contributor11"/>
          <type value="Organization"/>
          <display value="PARACHUTE Investigators"/>
        </contributor>
      </entry>
    </contributorship>
  </citedArtifact>
</Citation>