<?xml version="1.0" encoding="UTF-8"?><CarePlan xmlns="http://hl7.org/fhir" xmlns:xsi="http://www.w3.org/2001/XMLSchema-instance" xsi:schemaLocation="http://hl7.org/fhir ../../schema/careplan.xsd">
  <id value="f001"/>
  <contained>
    <CareTeam>
        <id value="careteam"/>
        <participant>
    	    <member>
      		<reference value="Practitioner/f002"/>
      		<display value="P. Voigt"/>
            </member>
  	</participant>
    </CareTeam>
  </contained>  
  <contained>
    <Goal>
      <id value="goal"/>
      <lifecycleStatus value="completed" />
	  <achievementStatus>
		<coding>
			<system value="http://terminology.hl7.org/CodeSystem/goal-achievement" />
			<code value="achieved" />
			<display value="Achieved" />
		</coding>
		<text value="Achieved" />
	  </achievementStatus>
      <description>
        <text value="recovery surgery on heart of patient"/>
      </description>
      <subject>
		<reference value="Patient/f001"/>
		<display value="P. van de Heuvel"/>
      </subject>
      <note>
        <text value="goal accomplished without complications"/>
      </note>
    </Goal>
  </contained>
  <contained>
    <ServiceRequest>
      <id value="activity"/>
	  <status value="completed"/>
	  <intent value="order"/>
	  <code>
		<concept>
			<coding>
			  <system value="http://snomed.info/sct"/>
			  <code value="64915003"/>
			  <display value="Operation on heart"/>
			</coding>
		</concept>
	  </code>
	  <subject>
		<reference value="Patient/f001"/>
		<display value="P. van de Heuvel"/>
	  </subject>
      <occurrenceDateTime value="2011-06-27T09:30:10+01:00"/>
      <performer>
        <reference value="Practitioner/f002"/>
        <display value="P. Voigt"/>
      </performer>
	</ServiceRequest>
  </contained>
  <identifier>
    <use value="official"/>
    <!-- urn:oid:2.16.840.1.113883.4.642.1.36 -->
    <system value="http://www.bmc.nl/zorgportal/identifiers/careplans"/>
    <value value="CP2903"/>
  </identifier>
  <status value="completed"/>
  <intent value="plan"/>
  <subject>
    <reference value="Patient/f001"/>
    <display value="P. van de Heuvel"/>
  </subject>
  <period>
    <start value="2011-06-26"/>
    <end value="2011-06-27"/>
  </period>
  <careTeam>
    <reference value="#careteam"/>
  </careTeam>  
  <addresses>
    <reference>
      <reference value="Condition/f201"/>
      <!--TODO Correcte referentie-->
      <display value="?????"/>
    </reference>
  </addresses>
  <goal>
    <reference value="#goal"/>
  </goal>
  <activity>
	<plannedActivityReference>
		<reference value="#activity"/>
	</plannedActivityReference>
    <!-- moved to contained
	<plannedActivityDetail>
      <kind value="ServiceRequest"/>
      <code>
        <coding>
          <system value="http://snomed.info/sct"/>
          <code value="64915003"/>
          <display value="Operation on heart"/>
        </coding>
      </code>
      <status value="completed"/>
      <doNotPerform value="true"/>
      <scheduledString value="2011-06-27T09:30:10+01:00"/>
      <performer>
        <reference value="Practitioner/f002"/>
        <display value="P. Voigt"/>
      </performer>
    </plannedActivityDetail>
	-->
  </activity>
</CarePlan>