<?xml version="1.0" encoding="UTF-8"?><CarePlan xmlns="http://hl7.org/fhir" xmlns:xsi="http://www.w3.org/2001/XMLSchema-instance" xsi:schemaLocation="http://hl7.org/fhir ../../schema/careplan.xsd">
  <id value="f202"/>
  <contained>
    <Medication>
      <id value="doce"/>
      <code>
        <coding>
          <system value="http://snomed.info/sct"/>
          <code value="108806006"/>
          <display value="Docetaxel"/>
        </coding>
      </code>
    </Medication>
  </contained>
  <contained>
    <Medication>
      <id value="cisp"/>
      <code>
        <coding>
          <system value="http://snomed.info/sct"/>
          <code value="57066004"/>
          <display value="Cisplatin"/>
        </coding>
      </code>
    </Medication>
  </contained>
  <contained>
    <Medication>
      <id value="fluo"/>
      <code>
        <coding>
          <system value="http://snomed.info/sct"/>
          <code value="3127006"/>
          <display value="Fluorouracil"/>
        </coding>
      </code>
    </Medication>
  </contained>
  <contained>
    <Medication>
      <id value="tpf"/>
      <!--TPF consists of Docetaxel, Cisplatin and Fluorouracil-->
      <code>
        <text value="TPF"/>
      </code>
        <ingredient>
          <item>
            <reference>
            <reference value="#doce"/>
            </reference>
          </item>
        </ingredient>
        <ingredient>
          <item>
          <reference>
            <reference value="#cisp"/>
          </reference>
          </item>
        </ingredient>
        <ingredient>
          <item>
          <reference>
            <reference value="#fluo"/>
          </reference>
          </item>
        </ingredient>
      
    </Medication>
  </contained>
  <contained>
    <CareTeam>
        <id value="careteam"/>
	<participant>
    	    <role>
      	    	<coding>
        	    <system value="http://snomed.info/sct"/>
        	    <code value="28995006"/>
        	    <display value="Treated with"/>
      		</coding>
    	    </role>
    	    <member>
      		<reference value="Practitioner/f201"/>
      		<display value="Dokter Bronsig"/>
    	    </member>
  	</participant>
    </CareTeam>
  </contained>
  <contained>
    <Goal>
      <id value="goal"/>
      <lifecycleStatus value="active" />
      <description>
        <text value="Elimination of the spenoid bone tumor"/>
      </description>
      <subject>
        <reference value="Patient/f201"/>
        <display value="Roel"/>
      </subject>      
    </Goal>
  </contained>
  <status value="active"/>
  <intent value="plan"/>
  <subject>
    <!--It entails Roel's careplan-->
    <reference value="Patient/f201"/>
    <display value="Roel"/>
  </subject>
  <careTeam>
    <reference value="#careteam"/>
  </careTeam>
  <addresses>
    <reference>
      <reference value="Condition/f202"/>
      <display value="Roel's head-neck tumor"/>
    </reference>
  </addresses>
  <goal>
    <reference value="#goal"/>
  </goal>
  <activity>
    <performedActivity>
      <reference>
        <reference value="Procedure/f201"/>
        <display value="Roel's Chemotherapy"/>
      </reference>
    </performedActivity>
    <plannedActivityDetail>
      <kind value="ServiceRequest"/>
      <code>
        <coding>
          <system value="http://snomed.info/sct"/>
          <code value="367336001"/>
          <display value="Chemotherapy"/>
        </coding>
      </code>
      <status value="in-progress"/>
      <doNotPerform value="false"/>
      <productReference>
        <reference value="#tpf"/>
      </productReference>
    </plannedActivityDetail>
  </activity>
</CarePlan>