<?xml version="1.0" encoding="UTF-8"?>
<CarePlan xmlns="http://hl7.org/fhir" xmlns:xsi="http://www.w3.org/2001/XMLSchema-instance" xsi:schemaLocation="http://hl7.org/fhir ../../schema/CarePlan.xsd">
  <id value="integrate"/>
  <text>
    <status value="generated"/>
    <div xmlns="http://www.w3.org/1999/xhtml">
      <p>Patient family is not ready to commit to goal setting at this time.  Goal setting will be addressed in the future</p>
      <table>
        <thead>
          <tr>
            <th>Start Date</th>
            <th>Goal</th>
            <th>Action Steps</th>
            <th>Status</th>
            <th>Date Last Updated</th>
            <th>Comments</th>
          </tr>
        </thead>
        <tbody>
          <tr>
            <td>10 Sep 2012</td>
            <td>Eve will lose weight and reduce her GERDS symptoms by improving her diet</td>
            <td>Eve will review photos of high and low density foods and share with her parents</td>
            <td>New Goal</td>
            <td>10 Sep 2012</td>
            <td>9/10/12 Eve eats one meal a day with her parents</td>
          </tr>
          <tr>
            <td>10 Sep 2012</td>
            <td>Eve will lose weight and reduce her GERDS symptoms by improving her diet</td>
            <td>Eve will ask her dad to asist her to put the head of her bed on blocks</td>
            <td>New Goal</td>
            <td>10 Sep 2012</td>
            <td>9/10/12 Eve will sleep in her bed more often than the couch</td>
          </tr>
          <tr>
            <td>10 Sep 2012</td>
            <td>Eve will improve her GERDS symptoms</td>
            <td>Eve will reduce her intake of coffee and chocolate</td>
            <td>In Process</td>
            <td>10 Sep 2012</td>
            <td/>
          </tr>
          <tr>
            <td>27 Aug 2012</td>
            <td>Eve will increase her energy by being more active</td>
            <td>Eve will walk her friend's dog up and down a big hill 15-30 minutes 3 days a week</td>
            <td>In Process</td>
            <td>10 Sep 2012</td>
            <td>8/27/12 Eve would like to try for 5 days a week.  9/10/12 Eve is still walking the dogs.</td>
          </tr>
          <tr>
            <td>23 Jul 2012</td>
            <td>Eve will increase her energy by being more active</td>
            <td>Eve will walk 3 blocks to her parents house twice a week</td>
            <td>In Process</td>
            <td>10 Sep 2012</td>
            <td>8/13/12 Eve walked 4 times the last week.  9/10/12 Eve did not walk to her parents the last week, but has plans to start again</td>
          </tr>
          <tr>
            <td>23 Jul 2012</td>
            <td>Eve will set up her medications and take as prescribed</td>
            <td>Eve will us a calendar to check off after medications are taken</td>
            <td>In Process</td>
            <td>13 Aug 2012</td>
            <td/>
          </tr>
          <tr>
            <td>23 Jul 2012</td>
            <td>Eve will restart her light treatments</td>
            <td>Eve will use her lights MWF after her shower for 3 minutes</td>
            <td>In Process</td>
            <td>27 Aug 2012</td>
            <td>8/13/12 After restarting the vinegar soaks the psoriasis is improved and Eve plans to treat the remainder with light treatments.  She plans to start this week.  8/27/12 Since her skin is improved Eve has not been using the light treatment as often, maybe once a week.  She would like to increase to 3 times a week again</td>
          </tr>
          <tr>
            <td>10 Jul 2012</td>
            <td>Eve will set up her medications and take as prescribed</td>
            <td>Eve will use a calendar of a chart to help her remember when to take her medications</td>
            <td>In Process</td>
            <td>10 Sep 2012</td>
            <td>7/23/12 Eve created a chart as a reminer to take the medications that do not fit in her pill box</td>
          </tr>
          <tr>
            <td>23 Jul 2012</td>
            <td>Eve will increase her energy by being more active</td>
            <td>Eve will start using stretch bands and one step 2 days a week Mon/Wed 6-7am and maybe Friday afternoon</td>
            <td>On-Hold</td>
            <td>23 Aug 2012</td>
            <td>7/30/12 will be able to esume exercise.  8/13/12 Eve prefers to focus on walking at this time</td>
          </tr>
          <tr>
            <td>10 Jul 2012</td>
            <td>Eve will set up her medications and take as prescribed</td>
            <td>Eve will match a printed medication worksheet with the medication bottles at home</td>
            <td>Completed</td>
            <td>23 Jul 2012</td>
            <td/>
          </tr>
          <tr>
            <td>10 Jul 2012</td>
            <td>Eve will set up her medications and take as prescribed</td>
            <td>Eve will get a medication box to sort her pills.  She will have one for scheduled medications and one for as needed</td>
            <td>Completed</td>
            <td>16 Jul 2012</td>
            <td>7/16/12 Eve now has some of her medications set up in pill packs by her pharmacist</td>
          </tr>
          <tr>
            <td>23 Jul 2012</td>
            <td>Eve will increase her energy by being more active</td>
            <td>Eve will open "The Firm" DVD workout package and listen to it</td>
            <td>Discontinued</td>
            <td>13 Aug 2012</td>
            <td>7/30/12 Eve will be able to resume exercise on 7/30/12.  8/13/12 -hold until "less busy"</td>
          </tr>
        </tbody>
      </table>
    </div>
  </text>
  <contained>
    <!-- Conditions could be further encoded and detailed.  
      Could also be handled as references to external resources.
      And not essential to have them captured at all.
      For purposes of example, will represent this way. -->
    <Condition>
      <id value="p1"/>
      <subject>
        <reference value="Patient/1"/>
        <display value="Eve Everywoman"/>
      </subject>
      <code>
        <text value="GERDS"/>
      </code>
      <status value="confirmed"/>
    </Condition>
  </contained>
  <contained>
    <Condition>
      <id value="p2"/>
      <subject>
        <reference value="Patient/1"/>
        <display value="Eve Everywoman"/>
      </subject>
      <code>
        <text value="Obesity"/>
      </code>
      <status value="confirmed"/>
    </Condition>
  </contained>
  <contained>
    <Condition>
      <id value="p3"/>
      <subject>
        <reference value="Patient/1"/>
        <display value="Eve Everywoman"/>
      </subject>
      <code>
        <text value="Psoriasis"/>
      </code>
      <status value="confirmed"/>
    </Condition>
  </contained>
  <patient>
    <reference value="Patient/1"/>
    <display value="Eve Everywoman"/>
  </patient>
  <status value="active"/>
  <modified value="2012-09-10"/>
  <concern>
    <reference value="#p1"/> <!-- Local reference -->
    <display value="GERDS"/>
  </concern>
  <concern>
    <reference value="#p2"/> <!-- Local reference -->
    <display value="Obesity"/>
  </concern>
  <concern>
    <reference value="#p3"/> <!-- Local reference -->
    <display value="Psoriasis"/>
  </concern>
  <goal id="g1">
    <description value="Eve will lose weight and reduce her GERDS symptoms by improving her diet"/>
    <status value="in-progress"/>
  </goal>
  <goal id="g2">
    <description value="Eve will improve her GERDS symptoms"/>
    <status value="in-progress"/>
  </goal>
  <goal id="g3">
    <description value="Eve will increase her energy by being more active"/>
    <status value="in-progress"/>
  </goal>
  <goal id="g4">
    <description value="Eve will set up her medications and take as prescribed"/>
    <status value="in-progress"/>
  </goal>
  <goal id="g5">
    <description value="Eve will restart her light treatments"/>
    <status value="in-progress"/>
  </goal>
  <activity>
    <status value="not-started"/>
    <prohibited value="false"/>
    <notes value="9/10/12 Eve eats one meal a day with her parents"/>
    <simple>
    <extension url="http://example.org/DoNotUse/EnhancedCarePlan/ActivityGoalLink">
      <valueUri value="#g1"/>
    </extension>
    <extension url="http://example.org/DoNotUse/General/RevisionDate">
      <valueDate value="2012-09-10"/>
    </extension>
    <category value="other"/>
    <scheduledPeriod>
      <start value="2012-09-10"/>
    </scheduledPeriod>
    <details value="Eve will review photos of high and low density foods and share with her parents"/>
    </simple>
  </activity>
  <activity>
    <status value="not-started"/>
    <prohibited value="false"/>
    <notes value="9/10/12 Eve will sleep in her bed more often than the couch"/>
    <simple>
    <extension url="http://example.org/DoNotUse/EnhancedCarePlan/ActivityGoalLink">
      <valueUri value="#g1"/>
    </extension>
    <extension url="http://example.org/DoNotUse/General/RevisionDate">
      <valueDate value="2012-09-10"/>
    </extension>
    <category value="other"/>
    <scheduledPeriod>
      <start value="2012-09-10"/>
    </scheduledPeriod>
    <details value="Eve will ask her dad to asist her to put the head of her bed on blocks"/>
    </simple>
  </activity>
  <activity>
    <status value="in-progress"/>
    <prohibited value="false"/>
    <simple>
      <extension url="http://example.org/DoNotUse/EnhancedCarePlan/ActivityGoalLink">
        <valueUri value="#g2"/>
      </extension>
      <extension url="http://example.org/DoNotUse/General/RevisionDate">
        <valueDate value="2012-09-10"/>
      </extension>
      <category value="other"/>
      <scheduledPeriod>
        <start value="2012-09-10"/>
      </scheduledPeriod>
      <details value="Eve will reduce her intake of coffee and chocolate"/>
    </simple>
  </activity>
  <activity>
    <status value="in-progress"/>
    <prohibited value="false"/>
    <notes value="8/27/12 Eve would like to try for 5 days a week.  9/10/12 Eve is still walking the dogs."/>
    <simple>
    <extension url="http://example.org/DoNotUse/EnhancedCarePlan/ActivityGoalLink">
      <valueUri value="#g3"/>
    </extension>
    <extension url="http://example.org/DoNotUse/General/RevisionDate">
      <valueDate value="2012-09-10"/>
    </extension>
    <category value="other"/>
    <scheduledPeriod>
      <start value="2012-08-27"/>
    </scheduledPeriod>
    <details value="Eve will walk her friend's dog up and down a big hill 15-30 minutes 3 days a week"/>
    </simple>
  </activity>
  <activity>
    <status value="in-progress"/>
    <prohibited value="false"/>
    <notes value="8/13/12 Eve walked 4 times the last week.  9/10/12 Eve did not walk to her parents the last week, but has plans to start again"/>
    <simple>
      <extension url="http://example.org/DoNotUse/EnhancedCarePlan/ActivityGoalLink">
        <valueUri value="#g3"/>
      </extension>
      <extension url="http://example.org/DoNotUse/General/RevisionDate">
        <valueDate value="2012-09-10"/>
      </extension>
      <category value="other"/>
      <scheduledPeriod>
        <start value="2012-07-23"/>
      </scheduledPeriod>
      <details value="Eve will walk 3 blocks to her parents house twice a week"/>
    </simple>
  </activity>
  <activity>
    <status value="in-progress"/>
    <prohibited value="false"/>
    <simple>
      <extension url="http://example.org/DoNotUse/EnhancedCarePlan/ActivityGoalLink">
        <valueUri value="#g4"/>
      </extension>
      <extension url="http://example.org/DoNotUse/General/RevisionDate">
        <valueDate value="2012-08-13"/>
      </extension>
      <category value="other"/>
      <scheduledPeriod>
        <start value="2012-07-23"/>
      </scheduledPeriod>
      <details value="Eve will us a calendar to check off after medications are taken"/>
    </simple>
  </activity>
  <activity>
    <status value="in-progress"/>
    <prohibited value="false"/>
    <notes value="8/13/12 After restarting the vinegar soaks the psoriasis is improved and Eve plans to treat the remainder with light treatments.  She plans to start this week.  8/27/12 Since her skin is improved Eve has not been using the light treatment as often, maybe once a week.  She would like to increase to 3 times a week again"/>
    <simple>
      <extension url="http://example.org/DoNotUse/EnhancedCarePlan/ActivityGoalLink">
        <valueUri value="#g5"/>
      </extension>
      <extension url="http://example.org/DoNotUse/General/RevisionDate">
        <valueDate value="2012-08-27"/>
      </extension>
      <category value="other"/>
      <scheduledPeriod>
        <start value="2012-07-23"/>
      </scheduledPeriod>
      <details value="Eve will use her lights MWF after her shower for 3 minutes"/>
    </simple>
  </activity>
  <activity>
    <status value="in-progress"/>
    <prohibited value="false"/>
    <notes value="7/23/12 Eve created a chart as a reminer to take the medications that do not fit in her pill box"/>
    <simple>
      <extension url="http://example.org/DoNotUse/EnhancedCarePlan/ActivityGoalLink">
        <valueUri value="#g4"/>
      </extension>
      <extension url="http://example.org/DoNotUse/General/RevisionDate">
        <valueDate value="2012-09-10"/>
      </extension>
      <category value="other"/>
      <scheduledPeriod>
        <start value="2012-07-10"/>
      </scheduledPeriod>
      <details value="Eve will use a calendar of a chart to help her remember when to take her medications"/>
    </simple>
  </activity>
  <activity>
    <status value="on-hold"/>
    <prohibited value="false"/>
    <notes value="7/30/12 will be able to esume exercise.  8/13/12 Eve prefers to focus on walking at this time"/>
    <simple>
      <extension url="http://example.org/DoNotUse/EnhancedCarePlan/ActivityGoalLink">
        <valueUri value="#g3"/>
      </extension>
      <extension url="http://example.org/DoNotUse/General/RevisionDate">
        <valueDate value="2012-08-23"/>
      </extension>
      <category value="other"/>
      <scheduledPeriod>
        <start value="2012-07-23"/>
      </scheduledPeriod>
      <details value="Eve will start using stretch bands and one step 2 days a week Mon/Wed 6-7am and maybe Friday afternoon"/>
    </simple>
  </activity>
  <activity>
    <status value="completed"/>
    <prohibited value="false"/>
    <simple>
      <extension url="http://example.org/DoNotUse/EnhancedCarePlan/ActivityGoalLink">
        <valueUri value="#g4"/>
      </extension>
      <extension url="http://example.org/DoNotUse/General/RevisionDate">
        <valueDate value="2012-07-23"/>
      </extension>
      <category value="other"/>
      <scheduledPeriod>
        <start value="2012-07-10"/>
      </scheduledPeriod>
      <details value="Eve will match a printed medication worksheet with the medication bottles at home"/>
    </simple>
  </activity>
  <activity>
    <status value="completed"/>
    <prohibited value="false"/>
    <notes value="7/16/12 Eve now has some of her medications set up in pill packs by her pharmacist"/>
    <simple>
      <extension url="http://example.org/DoNotUse/EnhancedCarePlan/ActivityGoalLink">
        <valueUri value="#g4"/>
      </extension>
      <extension url="http://example.org/DoNotUse/General/RevisionDate">
        <valueDate value="2012-07-16"/>
      </extension>
      <category value="other"/>
      <scheduledPeriod>
        <start value="2012-07-10"/>
      </scheduledPeriod>
      <details value="Eve will get a medication box to sort her pills.  She will have one for scheduled medications and one for as needed"/>
    </simple>
  </activity>
  <activity>
    <status value="cancelled"/>
    <prohibited value="false"/>
    <notes value="7/30/12 Eve will be able to resume exercise on 7/30/12.  8/13/12 -hold until &quot;less busy&quot;"/>
    <simple>
      <extension url="http://example.org/DoNotUse/EnhancedCarePlan/ActivityGoalLink">
        <valueUri value="#g3"/>
      </extension>
      <extension url="http://example.org/DoNotUse/General/RevisionDate">
        <valueDate value="2012-08-13"/>
      </extension>
      <category value="other"/>
      <scheduledPeriod>
        <start value="2012-07-23"/>
      </scheduledPeriod>
      <details value="Eve will open &quot;The Firm&quot; DVD workout package and listen to it"/>
    </simple>
  </activity>
  <notes value="Patient family is not ready to commit to goal setting at this time.  Goal setting will be addressed in the future"/>
</CarePlan>